timestamp,GYRO_X,GYRO_Y,GYRO_Z
1427956545159,-0.0800000,-0.0800000,-0.0800000
1427956545210,-0.0850000,-0.0850000,-0.0850000
1427956545280,-0.0935000,-0.0935000,-0.0935000
1427956545350,-0.0981500,-0.0981500,-0.0981500
1427956545410,-0.0943350,-0.0943350,-0.0943350
1427956545480,-0.0969015,-0.0969015,-0.0969015
1427956545550,-0.1002114,-0.1002114,-0.1002114
1427956545610,-0.0946830,-0.0946830,-0.0946830
1427956545681,-0.1031712,-0.1031712,-0.1031712
1427956545741,-0.0978541,-0.0978541,-0.0978541
1427956545810,-0.0900687,-0.0900687,-0.0900687
1427956545872,-0.0800618,-0.0800618,-0.0800618
1427956545945,-0.0760556,-0.0760556,-0.0760556
1427956546028,-0.0894423,-0.0894423,-0.0894423
1427956546077,-0.0632051,-0.0632051,-0.0632051
1427956546140,-0.0538845,-0.0538845,-0.0538845
1427956546210,-0.0594961,-0.0594961,-0.0594961
1427956546270,-0.0575465,-0.0575465,-0.0575465
1427956546340,-0.0647918,-0.0647918,-0.0647918
1427956546401,-0.0613127,-0.0613127,-0.0613127
1427956546473,-0.0600394,-0.0600394,-0.0600394
1427956546541,-0.0467633,-0.0467633,-0.0467633
1427956546601,-0.0350869,-0.0350869,-0.0350869
1427956546673,-0.0215782,-0.0215782,-0.0215782
1427956546733,-0.0054204,-0.0054204,-0.0054204
1427956546802,0.0191216,0.0191216,0.0191216
1427956546861,0.0392095,0.0392095,0.0392095
1427956546936,-0.0084196,-0.0084196,-0.0084196
1427956547027,0.0398597,0.0398597,0.0398597
1427956547082,0.0278737,0.0278737,0.0278737
1427956547130,0.0150863,0.0150863,0.0150863
1427956547200,0.0025777,0.0025777,0.0025777
1427956547260,-0.0146801,-0.0146801,-0.0146801
1427956547329,-0.0242121,-0.0242121,-0.0242121
1427956547393,0.0077509,0.0077509,0.0077509
1427956547460,-0.0231118,-0.0231118,-0.0231118
1427956547530,-0.0128006,-0.0128006,-0.0128006
1427956547598,-0.0075205,-0.0075205,-0.0075205
1427956547660,0.0022315,0.0022315,0.0022315
1427956547721,0.0140084,0.0140084,0.0140084
1427956547793,0.0256075,0.0256075,0.0256075
1427956547861,-0.0002640,-0.0002640,-0.0002640
1427956547922,0.0270421,0.0270421,0.0270421
1427956548057,0.0213379,0.0213379,0.0213379
1427956548067,0.0122041,0.0122041,0.0122041
1427956548120,0.0049837,0.0049837,0.0049837
1427956548191,-0.0005150,-0.0005150,-0.0005150
1427956548250,-0.0094632,-0.0094632,-0.0094632
1427956548320,0.0092650,0.0092650,0.0092650
1427956548380,-0.0227652,-0.0227652,-0.0227652
1427956548451,-0.0204887,-0.0204887,-0.0204887
1427956548511,-0.0124398,-0.0124398,-0.0124398
1427956548580,-0.0061958,-0.0061958,-0.0061958
1427956548652,0.0064238,0.0064238,0.0064238
1427956548711,0.0057814,0.0057814,0.0057814
1427956548781,-0.0082807,-0.0082807,-0.0082807
1427956548851,-0.0087171,-0.0087171,-0.0087171
1427956548913,-0.0108454,-0.0108454,-0.0108454
1427956548999,-0.0097608,-0.0097608,-0.0097608
1427956549056,-0.0087848,-0.0087848,-0.0087848
1427956549110,-0.0059063,-0.0059063,-0.0059063
1427956549180,-0.0053157,-0.0053157,-0.0053157
1427956549240,-0.0082217,-0.0082217,-0.0082217
1427956549310,-0.0034057,-0.0034057,-0.0034057
1427956549370,-0.0030651,-0.0030651,-0.0030651
1427956549446,0.0002410,0.0002410,0.0002410
1427956549500,-0.0007830,-0.0007830,-0.0007830
1427956549573,-0.0007040,-0.0007040,-0.0007040
1427956549643,-0.0015433,-0.0015433,-0.0015433
1427956549702,0.0051294,0.0051294,0.0051294
1427956549772,0.0126164,0.0126164,0.0126164
1427956549830,0.0113548,0.0113548,0.0113548
1427956549903,0.0042193,0.0042193,0.0042193
1427956550028,-0.0052026,-0.0052026,-0.0052026
1427956550044,0.0056235,0.0056235,0.0056235
1427956550100,0.0013859,0.0013859,0.0013859
1427956550170,0.0002470,0.0002470,0.0002470
1427956550230,-0.0007770,-0.0007770,-0.0007770
1427956550300,-0.0056997,-0.0056997,-0.0056997
1427956550360,-0.0121297,-0.0121297,-0.0121297
1427956550431,-0.0129167,-0.0129167,-0.0129167
1427956550491,-0.0049817,-0.0049817,-0.0049817
1427956550563,-0.0122626,-0.0122626,-0.0122626
1427956550633,-0.0080363,-0.0080363,-0.0080363
1427956550693,-0.0032327,-0.0032327,-0.0032327
1427956550763,-0.0039094,-0.0039094,-0.0039094
1427956550822,-0.0085185,-0.0085185,-0.0085185
1427956550893,-0.0071919,-0.0071919,-0.0071919
1427956550988,-0.0132000,-0.0132000,-0.0132000
1427956551041,-0.0078800,-0.0078800,-0.0078800
1427956551090,-0.0070920,-0.0070920,-0.0070920
1427956551160,-0.0023828,-0.0023828,-0.0023828
1427956551220,0.0028555,0.0028555,0.0028555
1427956551290,0.0005700,0.0005700,0.0005700
1427956551350,-0.0045215,-0.0045215,-0.0045215
1427956551425,-0.0025383,-0.0025383,-0.0025383
1427956551482,-0.0022845,-0.0022845,-0.0022845
1427956551550,-0.0030561,-0.0030561,-0.0030561
1427956551624,-0.0087504,-0.0087504,-0.0087504
1427956551683,-0.0198754,-0.0198754,-0.0198754
1427956551753,-0.0073009,-0.0073009,-0.0073009
1427956551822,-0.0208991,-0.0208991,-0.0208991
1427956551883,-0.0188092,-0.0188092,-0.0188092
1427956551952,-0.0089283,-0.0089283,-0.0089283
1427956552047,-0.0060354,-0.0060354,-0.0060354
1427956552107,-0.0104319,-0.0104319,-0.0104319
1427956552154,-0.0130208,-0.0130208,-0.0130208
1427956552210,-0.0063498,-0.0063498,-0.0063498
1427956552281,-0.0067148,-0.0067148,-0.0067148
1427956552340,0.0009570,0.0009570,0.0009570
1427956552410,-0.0011390,-0.0011390,-0.0011390
1427956552472,-0.0100251,-0.0100251,-0.0100251
1427956552546,-0.0210226,-0.0210226,-0.0210226
1427956552612,-0.0073825,-0.0073825,-0.0073825
1427956552672,-0.0343283,-0.0343283,-0.0343283
1427956552744,-0.0248955,-0.0248955,-0.0248955
1427956552800,-0.0264059,-0.0264059,-0.0264059
1427956552877,-0.0247653,-0.0247653,-0.0247653
1427956552943,-0.0192888,-0.0192888,-0.0192888
1427956553000,-0.0173599,-0.0173599,-0.0173599
1427956553070,-0.0245073,-0.0245073,-0.0245073
1427956553140,-0.0279615,-0.0279615,-0.0279615
1427956553200,-0.0211654,-0.0211654,-0.0211654
1427956553270,-0.0110488,-0.0110488,-0.0110488
1427956553330,0.0040560,0.0040560,0.0040560
1427956553401,0.0196504,0.0196504,0.0196504
1427956553461,0.0326854,0.0326854,0.0326854
1427956553533,-0.0006310,-0.0006310,-0.0006310
1427956553604,0.0261752,0.0261752,0.0261752
1427956553661,0.0205577,0.0205577,0.0205577
1427956553730,-0.0074981,-0.0074981,-0.0074981
1427956553800,-0.0017483,-0.0017483,-0.0017483
1427956553862,-0.0065735,-0.0065735,-0.0065735
1427956553931,0.0060839,0.0060839,0.0060839
1427956553992,0.0061661,0.0061661,0.0061661
1427956554061,-0.0001720,-0.0001720,-0.0001720
1427956554131,-0.0221549,-0.0221549,-0.0221549
1427956554190,-0.0299394,-0.0299394,-0.0299394
1427956554260,-0.0119454,-0.0119454,-0.0119454
1427956554320,0.0022491,0.0022491,0.0022491
1427956554390,0.0090242,0.0090242,0.0090242
1427956554461,-0.0088231,-0.0088231,-0.0088231
1427956554523,0.0250096,0.0250096,0.0250096
1427956554594,0.0285086,0.0285086,0.0285086
1427956554651,0.0316578,0.0316578,0.0316578
1427956554731,0.0184920,0.0184920,0.0184920
1427956554799,0.0186428,0.0186428,0.0186428
1427956554850,0.0297785,0.0297785,0.0297785
1427956554924,0.0253482,0.0253482,0.0253482
1427956554993,0.0168206,0.0168206,0.0168206
1427956555057,0.0111385,0.0111385,0.0111385
1427956555120,0.0020247,0.0020247,0.0020247
1427956555180,-0.0071778,-0.0071778,-0.0071778
1427956555250,0.0055400,0.0055400,0.0055400
1427956555310,0.0159860,0.0159860,0.0159860
1427956555380,0.0073887,0.0073887,0.0073887
1427956555450,0.0468487,0.0468487,0.0468487
1427956555513,0.0481638,0.0481638,0.0481638
1427956555586,0.0403474,0.0403474,0.0403474
1427956555644,0.0343127,0.0343127,0.0343127
1427956555713,0.0308814,0.0308814,0.0308814
1427956555774,0.0287933,0.0287933,0.0287933
1427956555841,0.0382245,0.0382245,0.0382245
1427956555912,0.0289225,0.0289225,0.0289225
1427956555972,0.0240303,0.0240303,0.0240303
1427956556041,0.0166273,0.0166273,0.0166273
1427956556110,0.0109645,0.0109645,0.0109645
1427956556170,-0.0041319,-0.0041319,-0.0041319
1427956556240,-0.0027187,-0.0027187,-0.0027187
1427956556299,0.0122823,0.0122823,0.0122823
1427956556369,0.0039978,0.0039978,0.0039978
1427956556430,0.0015980,0.0015980,0.0015980
1427956556503,-0.0015618,-0.0015618,-0.0015618
1427956556574,-0.0014056,-0.0014056,-0.0014056
1427956556633,-0.0042650,-0.0042650,-0.0042650
1427956556703,-0.0003270,-0.0003270,-0.0003270
1427956556763,-0.0148547,-0.0148547,-0.0148547
1427956556831,-0.0103692,-0.0103692,-0.0103692
1427956556901,-0.0073323,-0.0073323,-0.0073323
1427956556960,-0.0015991,-0.0015991,-0.0015991
1427956557030,0.0045609,0.0045609,0.0045609
1427956557100,0.0041048,0.0041048,0.0041048
1427956557160,-0.0042483,-0.0042483,-0.0042483
1427956557230,0.0005250,0.0005250,0.0005250
1427956557290,0.0024724,0.0024724,0.0024724
1427956557360,0.0062251,0.0062251,0.0062251
1427956557430,0.0056026,0.0056026,0.0056026
1427956557492,0.0090424,0.0090424,0.0090424
1427956557562,0.0047735,0.0047735,0.0047735
1427956557623,0.0052243,0.0052243,0.0052243
1427956557695,0.0097019,0.0097019,0.0097019
1427956557754,0.0157317,0.0157317,0.0157317
1427956557821,0.0101585,0.0101585,0.0101585
1427956557893,0.0071427,0.0071427,0.0071427
1427956557952,0.0024284,0.0024284,0.0024284
1427956558042,0.0083979,0.0083979,0.0083979
1427956558101,0.0041670,0.0041670,0.0041670
1427956558150,0.0227503,0.0227503,0.0227503
1427956558220,0.0494753,0.0494753,0.0494753
1427956558281,0.0695277,0.0695277,0.0695277
1427956558350,0.0735750,0.0735750,0.0735750
1427956558410,0.0952175,0.0952175,0.0952175
1427956558481,0.0524521,0.0524521,0.0524521
1427956558553,0.0484262,0.0484262,0.0484262
1427956558615,0.0365835,0.0365835,0.0365835
1427956558687,0.0189252,0.0189252,0.0189252
1427956558744,0.0120327,0.0120327,0.0120327
1427956558810,-0.0011706,-0.0011706,-0.0011706
1427956558886,0.0229594,0.0229594,0.0229594
1427956558944,-0.0215482,-0.0215482,-0.0215482
1427956559021,-0.0323934,-0.0323934,-0.0323934
1427956559097,-0.0121540,-0.0121540,-0.0121540
1427956559140,0.0080614,0.0080614,0.0080614
1427956559209,0.0112552,0.0112552,0.0112552
1427956559269,0.0031297,0.0031297,0.0031297
1427956559340,-0.0072749,-0.0072749,-0.0072749
1427956559410,0.0072351,0.0072351,0.0072351
1427956559473,0.0145116,0.0145116,0.0145116
1427956559544,0.0070604,0.0070604,0.0070604
1427956559603,0.0063544,0.0063544,0.0063544
1427956559673,0.0047189,0.0047189,0.0047189
1427956559733,0.0022470,0.0022470,0.0022470
1427956559801,0.0070212,0.0070212,0.0070212
1427956559877,-0.0031799,-0.0031799,-0.0031799
1427956559931,-0.0088619,-0.0088619,-0.0088619
1427956560032,-0.0149757,-0.0149757,-0.0149757
1427956560074,-0.0194782,-0.0194782,-0.0194782
1427956560130,-0.0175303,-0.0175303,-0.0175303
1427956560209,-0.0128052,-0.0128052,-0.0128052
1427956560259,-0.0102996,-0.0102996,-0.0102996
1427956560330,-0.0092696,-0.0092696,-0.0092696
1427956560400,-0.0103427,-0.0103427,-0.0103427
1427956560460,-0.0123084,-0.0123084,-0.0123084
1427956560530,-0.0140775,-0.0140775,-0.0140775
1427956560591,-0.0156698,-0.0156698,-0.0156698
1427956560663,-0.0119946,-0.0119946,-0.0119946
1427956560723,-0.0249925,-0.0249925,-0.0249925
1427956560796,-0.0214933,-0.0214933,-0.0214933
1427956560864,-0.0163440,-0.0163440,-0.0163440
1427956560922,-0.0087096,-0.0087096,-0.0087096
1427956561014,-0.0048386,-0.0048386,-0.0048386
1427956561060,-0.0083547,-0.0083547,-0.0083547
1427956561131,-0.0141221,-0.0141221,-0.0141221
1427956561202,-0.0106673,-0.0106673,-0.0106673
1427956561251,-0.0106006,-0.0106006,-0.0106006
1427956561321,-0.0125405,-0.0125405,-0.0125405
1427956561386,-0.0122865,-0.0122865,-0.0122865
1427956561453,-0.0110578,-0.0110578,-0.0110578
1427956561522,-0.0119521,-0.0119521,-0.0119521
1427956561583,-0.0115175,-0.0115175,-0.0115175
1427956561654,-0.0120812,-0.0120812,-0.0120812
1427956561713,-0.0088731,-0.0088731,-0.0088731
1427956561800,-0.0079857,-0.0079857,-0.0079857
1427956561851,-0.0081872,-0.0081872,-0.0081872
1427956561913,-0.0093685,-0.0093685,-0.0093685
1427956561995,-0.0092991,-0.0092991,-0.0092991
1427956562097,-0.0107884,-0.0107884,-0.0107884
1427956562110,-0.0097096,-0.0097096,-0.0097096
1427956562187,-0.0077386,-0.0077386,-0.0077386
1427956562243,-0.0019648,-0.0019648,-0.0019648
1427956562329,0.0032317,0.0032317,0.0032317
1427956562371,0.0069085,0.0069085,0.0069085
1427956562445,-0.0033435,-0.0033435,-0.0033435
1427956562511,0.0045959,0.0045959,0.0045959
1427956562572,0.0041363,0.0041363,0.0041363
1427956562644,0.0037227,0.0037227,0.0037227
1427956562703,0.0013504,0.0013504,0.0013504
1427956562773,-0.0007850,-0.0007850,-0.0007850
1427956562845,-0.0007060,-0.0007060,-0.0007060
1427956562905,0.0020524,0.0020524,0.0020524
1427956562987,-0.0035720,-0.0035720,-0.0035720
1427956563055,-0.0082148,-0.0082148,-0.0082148
1427956563100,-0.0163933,-0.0163933,-0.0163933
1427956563172,-0.0117540,-0.0117540,-0.0117540
1427956563237,-0.0035786,-0.0035786,-0.0035786
1427956563302,0.0057793,0.0057793,0.0057793
1427956563363,-0.0062889,-0.0062889,-0.0062889
1427956563431,0.0198812,0.0198812,0.0198812
1427956563503,0.0178931,0.0178931,0.0178931
1427956563562,0.0141038,0.0141038,0.0141038
1427956563631,0.0096934,0.0096934,0.0096934
1427956563692,0.0037241,0.0037241,0.0037241
1427956563763,-0.0016483,-0.0016483,-0.0016483
1427956563833,0.0106079,0.0106079,0.0106079
1427956563892,0.0083648,0.0083648,0.0083648
1427956563987,0.0065284,0.0065284,0.0065284
1427956564091,0.0088755,0.0088755,0.0088755
1427956564098,0.0079880,0.0079880,0.0079880
1427956564161,0.0091892,0.0091892,0.0091892
1427956564223,0.0092703,0.0092703,0.0092703
1427956564295,0.0083694,0.0083694,0.0083694
1427956564352,0.0132089,0.0132089,0.0132089
1427956564452,0.0148880,0.0148880,0.0148880
1427956564491,0.0153992,0.0153992,0.0153992
1427956564550,0.0148593,0.0148593,0.0148593
1427956564622,0.0143734,0.0143734,0.0143734
1427956564694,0.0109360,0.0109360,0.0109360
1427956564753,0.0139441,0.0139441,0.0139441
1427956564826,0.0031582,0.0031582,0.0031582
1427956564881,-0.0051576,-0.0051576,-0.0051576
1427956564953,-0.0056419,-0.0056419,-0.0056419
1427956565044,-0.0070777,-0.0070777,-0.0070777
1427956565080,-0.0063699,-0.0063699,-0.0063699
1427956565153,-0.0007330,-0.0007330,-0.0007330
1427956565213,-0.0036370,-0.0036370,-0.0036370
1427956565284,0.0003060,0.0003060,0.0003060
1427956565350,0.0032757,0.0032757,0.0032757
1427956565410,0.0029481,0.0029481,0.0029481
1427956565495,-0.0013467,-0.0013467,-0.0013467
1427956565551,-0.0012120,-0.0012120,-0.0012120
1427956565610,0.0009090,0.0009090,0.0009090
1427956565692,0.0008130,0.0008130,0.0008130
1427956565743,0.0102364,0.0102364,0.0102364
1427956565824,0.0062128,0.0062128,0.0062128
1427956565874,0.0025915,0.0025915,0.0025915
1427956565945,0.0003320,0.0003320,0.0003320
1427956566002,-0.0047009,-0.0047009,-0.0047009
1427956566081,-0.0062308,-0.0062308,-0.0062308
1427956566141,0.0014069,0.0014069,0.0014069
1427956566203,-0.0011469,-0.0011469,-0.0011469
1427956566273,-0.0020322,-0.0020322,-0.0020322
1427956566344,-0.0048290,-0.0048290,-0.0048290
1427956566406,-0.0043461,-0.0043461,-0.0043461
1427956566472,0.0020885,0.0020885,0.0020885
1427956566536,0.0078796,0.0078796,0.0078796
1427956566611,-0.0003980,-0.0003980,-0.0003980
1427956566672,0.0011825,0.0011825,0.0011825
1427956566732,-0.0019357,-0.0019357,-0.0019357
1427956566812,0.0002580,0.0002580,0.0002580
1427956566863,0.0042321,0.0042321,0.0042321
1427956566938,0.0088088,0.0088088,0.0088088
1427956567005,0.0109280,0.0109280,0.0109280
1427956567060,0.0039122,0.0039122,0.0039122
1427956567131,0.0334517,0.0334517,0.0334517
1427956567194,0.0371065,0.0371065,0.0371065
1427956567263,0.0323958,0.0323958,0.0323958
1427956567327,0.0271563,0.0271563,0.0271563
1427956567392,0.0344406,0.0344406,0.0344406
1427956567463,0.0329102,0.0329102,0.0329102
1427956567523,0.0108969,0.0108969,0.0108969
1427956567590,0.0028072,0.0028072,0.0028072
1427956567652,-0.0054735,-0.0054735,-0.0054735
1427956567722,-0.0069262,-0.0069262,-0.0069262
1427956567792,-0.0092335,-0.0092335,-0.0092335
1427956567851,-0.0083102,-0.0083102,-0.0083102
1427956567924,-0.0027065,-0.0027065,-0.0027065
1427956567994,0.0008690,0.0008690,0.0008690
1427956568071,-0.0042181,-0.0042181,-0.0042181
1427956568121,-0.0027963,-0.0027963,-0.0027963
1427956568270,-0.0005170,-0.0005170,-0.0005170
1427956568273,0.0055350,0.0055350,0.0055350
1427956568324,0.0059815,0.0059815,0.0059815
1427956568380,0.0008090,0.0008090,0.0008090
1427956568450,0.0066450,0.0066450,0.0066450
1427956568510,0.0069805,0.0069805,0.0069805
1427956568580,0.0072825,0.0072825,0.0072825
1427956568649,0.0105542,0.0105542,0.0105542
1427956568711,0.0034988,0.0034988,0.0034988
1427956568783,0.0069922,0.0069922,0.0069922
1427956568841,-0.0038660,-0.0038660,-0.0038660
1427956568926,-0.0044794,-0.0044794,-0.0044794
1427956569019,-0.0060314,-0.0060314,-0.0060314
1427956569040,-0.0064283,-0.0064283,-0.0064283
1427956569113,0.0022145,0.0022145,0.0022145
1427956569173,0.0089931,0.0089931,0.0089931
1427956569244,-0.0015996,-0.0015996,-0.0015996
1427956569303,0.0273844,0.0273844,0.0273844
1427956569370,0.0266460,0.0266460,0.0266460
1427956569443,0.0269814,0.0269814,0.0269814
1427956569503,0.0212832,0.0212832,0.0212832
1427956569573,0.0181549,0.0181549,0.0181549
1427956569644,0.0143394,0.0143394,0.0143394
1427956569701,0.0224649,0.0224649,0.0224649
1427956569773,0.0069149,0.0069149,0.0069149
1427956569864,0.0062234,0.0062234,0.0062234
1427956569911,0.0066011,0.0066011,0.0066011
1427956570031,0.0039410,0.0039410,0.0039410
1427956570038,-0.0024531,-0.0024531,-0.0024531
1427956570101,-0.0052078,-0.0052078,-0.0052078
1427956570162,0.0026699,0.0026699,0.0026699
1427956570233,-0.0107183,-0.0107183,-0.0107183
1427956570319,-0.0086465,-0.0086465,-0.0086465
1427956570361,-0.0057818,-0.0057818,-0.0057818
1427956570436,-0.0022037,-0.0022037,-0.0022037
1427956570492,-0.0039833,-0.0039833,-0.0039833
1427956570564,-0.0062667,-0.0062667,-0.0062667
1427956570621,-0.0080265,-0.0080265,-0.0080265
1427956570692,-0.0092238,-0.0092238,-0.0092238
1427956570763,-0.0063014,-0.0063014,-0.0063014
1427956570823,-0.0056713,-0.0056713,-0.0056713
1427956570898,-0.0051042,-0.0051042,-0.0051042
1427956570960,-0.0045937,-0.0045937,-0.0045937
1427956571020,-0.0064868,-0.0064868,-0.0064868
1427956571095,-0.0066209,-0.0066209,-0.0066209
1427956571151,-0.0079588,-0.0079588,-0.0079588
1427956571221,-0.0011630,-0.0011630,-0.0011630
1427956571286,0.0049533,0.0049533,0.0049533
1427956571352,0.0084580,0.0084580,0.0084580
1427956571423,-0.0004660,-0.0004660,-0.0004660
1427956571486,0.0076510,0.0076510,0.0076510
1427956571553,0.0108859,0.0108859,0.0108859
1427956571611,0.0197973,0.0197973,0.0197973
1427956571681,0.0168176,0.0168176,0.0168176
1427956571753,0.0081358,0.0081358,0.0081358
1427956571815,0.0023222,0.0023222,0.0023222
1427956571881,0.0109350,0.0109350,0.0109350
1427956572038,-0.0001190,-0.0001190,-0.0001190
1427956572055,-0.0001070,-0.0001070,-0.0001070
1427956572080,-0.0000964,-0.0000964,-0.0000964
1427956572141,-0.0000867,-0.0000867,-0.0000867
1427956572213,-0.0000781,-0.0000781,-0.0000781
1427956572273,-0.0000703,-0.0000703,-0.0000703
1427956572356,-0.0000929,-0.0000929,-0.0000929
1427956572415,0.0095431,0.0095431,0.0095431
1427956572473,0.0145888,0.0145888,0.0145888
1427956572544,0.0061299,0.0061299,0.0061299
1427956572604,0.0015169,0.0015169,0.0015169
1427956572673,-0.0006350,-0.0006350,-0.0006350
1427956572740,-0.0005710,-0.0005710,-0.0005710
1427956572802,0.0050954,0.0050954,0.0050954
1427956572873,0.0024372,0.0024372,0.0024372
1427956572933,0.0061935,0.0061935,0.0061935
1427956573023,0.0055742,0.0055742,0.0055742
1427956573071,0.0050168,0.0050168,0.0050168
1427956573131,0.0045151,0.0045151,0.0045151
1427956573203,0.0047474,0.0047474,0.0047474
1427956573263,0.0038572,0.0038572,0.0038572
1427956573332,0.0044715,0.0044715,0.0044715
1427956573401,0.0000243,0.0000243,0.0000243
1427956573462,-0.0019781,-0.0019781,-0.0019781
1427956573536,-0.0087803,-0.0087803,-0.0087803
1427956573596,-0.0039023,-0.0039023,-0.0039023
1427956573663,-0.0010513,-0.0010513,-0.0010513
1427956573732,-0.0186608,-0.0186608,-0.0186608
1427956573791,-0.0047947,-0.0047947,-0.0047947
1427956573862,0.0206847,0.0206847,0.0206847
1427956573922,0.0336163,0.0336163,0.0336163
1427956573993,0.0162546,0.0162546,0.0162546
1427956574074,0.0094200,0.0094200,0.0094200
1427956574120,0.0048663,0.0048663,0.0048663
1427956574193,0.0063796,0.0063796,0.0063796
1427956574254,0.0097417,0.0097417,0.0097417
1427956574338,0.0107675,0.0107675,0.0107675
1427956574394,0.0016907,0.0016907,0.0016907
1427956574454,-0.0064783,-0.0064783,-0.0064783
1427956574523,0.0044946,0.0044946,0.0044946
1427956574583,-0.0307474,-0.0307474,-0.0307474
1427956574654,-0.0276727,-0.0276727,-0.0276727
1427956574722,-0.0269054,-0.0269054,-0.0269054
1427956574782,-0.0382149,-0.0382149,-0.0382149
1427956574853,-0.0333934,-0.0333934,-0.0333934
1427956574913,-0.0370541,-0.0370541,-0.0370541
1427956574981,-0.0323313,-0.0323313,-0.0323313
1427956575050,-0.0139138,-0.0139138,-0.0139138
1427956575111,-0.0065224,-0.0065224,-0.0065224
1427956575181,-0.0028702,-0.0028702,-0.0028702
1427956575244,-0.0015832,-0.0015832,-0.0015832
1427956575324,0.0005750,0.0005750,0.0005750
1427956575383,-0.0048629,-0.0048629,-0.0048629
1427956575445,0.0063659,0.0063659,0.0063659
1427956575513,0.0097293,0.0097293,0.0097293
1427956575573,0.0097564,0.0097564,0.0097564
1427956575644,0.0077807,0.0077807,0.0077807
1427956575713,0.0060027,0.0060027,0.0060027
1427956575773,0.0034024,0.0034024,0.0034024
1427956575843,0.0071729,0.0071729,0.0071729
1427956575902,0.0037559,0.0037559,0.0037559
1427956575972,0.0033803,0.0033803,0.0033803
1427956576057,0.0010423,0.0010423,0.0010423
1427956576101,-0.0030619,-0.0030619,-0.0030619
1427956576182,-0.0007560,-0.0007560,-0.0007560
1427956576230,-0.0056802,-0.0056802,-0.0056802
1427956576301,-0.0002200,-0.0002200,-0.0002200
1427956576373,0.0001990,0.0001990,0.0001990
1427956576436,0.0001790,0.0001790,0.0001790
1427956576506,0.0001610,0.0001610,0.0001610
1427956576563,0.0001450,0.0001450,0.0001450
1427956576633,-0.0008690,-0.0008690,-0.0008690
1427956576707,-0.0000370,-0.0000370,-0.0000370
1427956576762,-0.0054042,-0.0054042,-0.0054042
1427956576832,-0.0068638,-0.0068638,-0.0068638
1427956576894,-0.0061774,-0.0061774,-0.0061774
1427956576961,-0.0065597,-0.0065597,-0.0065597
1427956577031,-0.0049037,-0.0049037,-0.0049037
1427956577091,-0.0044133,-0.0044133,-0.0044133
1427956577162,-0.0057203,-0.0057203,-0.0057203
1427956577223,-0.0054748,-0.0054748,-0.0054748
1427956577296,-0.0049273,-0.0049273,-0.0049273
1427956577361,-0.0044346,-0.0044346,-0.0044346
1427956577424,-0.0019911,-0.0019911,-0.0019911
1427956577497,-0.0017920,-0.0017920,-0.0017920
1427956577553,-0.0016128,-0.0016128,-0.0016128
1427956577623,-0.0033721,-0.0033721,-0.0033721
1427956577728,-0.0098064,-0.0098064,-0.0098064
1427956577754,-0.0098257,-0.0098257,-0.0098257
1427956577832,-0.0078432,-0.0078432,-0.0078432
1427956577880,-0.0050588,-0.0050588,-0.0050588
1427956577951,-0.0045530,-0.0045530,-0.0045530
1427956578021,-0.0050977,-0.0050977,-0.0050977
1427956578080,-0.0070308,-0.0070308,-0.0070308
1427956578153,-0.0031291,-0.0031291,-0.0031291
1427956578213,-0.0028162,-0.0028162,-0.0028162
1427956578361,-0.0015346,-0.0015346,-0.0015346
1427956578363,-0.0003810,-0.0003810,-0.0003810
1427956578414,0.0026570,0.0026570,0.0026570
1427956578483,-0.0010408,-0.0010408,-0.0010408
1427956578543,0.0041522,0.0041522,0.0041522
1427956578613,0.0047369,0.0047369,0.0047369
1427956578683,0.0042633,0.0042633,0.0042633
1427956578743,0.0048369,0.0048369,0.0048369
1427956578813,0.0073532,0.0073532,0.0073532
1427956578883,0.0096179,0.0096179,0.0096179
1427956578941,0.0058267,0.0058267,0.0058267
1427956579011,0.0068905,0.0068905,0.0068905
1427956579071,0.0002010,0.0002010,0.0002010
1427956579144,-0.0068187,-0.0068187,-0.0068187
1427956579207,-0.0031368,-0.0031368,-0.0031368
1427956579273,0.0041769,0.0041769,0.0041769
1427956579354,0.0002630,0.0002630,0.0002630
1427956579403,-0.0140167,-0.0140167,-0.0140167
1427956579470,-0.0126151,-0.0126151,-0.0126151
1427956579532,-0.0113536,-0.0113536,-0.0113536
1427956579603,-0.0202182,-0.0202182,-0.0202182
1427956579673,-0.0071964,-0.0071964,-0.0071964
1427956579733,0.0035233,0.0035233,0.0035233
1427956579811,-0.0103128,-0.0103128,-0.0103128
1427956579862,0.0222538,0.0222538,0.0222538
1427956579934,0.0250285,0.0250285,0.0250285
1427956580029,0.0185256,0.0185256,0.0185256
1427956580060,0.0066730,0.0066730,0.0066730
1427956580133,-0.0029943,-0.0029943,-0.0029943
1427956580193,-0.0076948,-0.0076948,-0.0076948
1427956580263,0.0102986,0.0102986,0.0102986
1427956580353,0.0144672,0.0144672,0.0144672
1427956580392,0.0280205,0.0280205,0.0280205
1427956580462,0.0262184,0.0262184,0.0262184
1427956580531,0.0125966,0.0125966,0.0125966
1427956580591,0.0013369,0.0013369,0.0013369
1427956580661,-0.0137968,-0.0137968,-0.0137968
1427956580723,0.0114738,0.0114738,0.0114738
1427956580794,-0.0309754,-0.0309754,-0.0309754
1427956580858,-0.0358778,-0.0358778,-0.0358778
1427956580923,-0.0282901,-0.0282901,-0.0282901
1427956580991,-0.0154611,-0.0154611,-0.0154611
1427956581051,0.0010850,0.0010850,0.0010850
1427956581123,0.0129765,0.0129765,0.0129765
1427956581183,-0.0160905,-0.0160905,-0.0160905
1427956581254,0.0159110,0.0159110,0.0159110
1427956581323,0.0133199,0.0133199,0.0133199
1427956581383,0.0099879,0.0099879,0.0099879
1427956581456,0.0069891,0.0069891,0.0069891
1427956581512,0.0062902,0.0062902,0.0062902
1427956581595,0.0104996,0.0104996,0.0104996
1427956581651,0.0089951,0.0089951,0.0089951
1427956581711,0.0130956,0.0130956,0.0130956
1427956581786,0.0157860,0.0157860,0.0157860
1427956581855,0.0142074,0.0142074,0.0142074
1427956581913,0.0087867,0.0087867,0.0087867
1427956581988,0.0039080,0.0039080,0.0039080
1427956582072,0.0107965,0.0107965,0.0107965
1427956582111,-0.0061345,-0.0061345,-0.0061345
1427956582173,-0.0095211,-0.0095211,-0.0095211
1427956582244,-0.0115690,-0.0115690,-0.0115690
1427956582313,-0.0104121,-0.0104121,-0.0104121
1427956582373,-0.0063709,-0.0063709,-0.0063709
1427956582446,-0.0047338,-0.0047338,-0.0047338
1427956582503,-0.0081235,-0.0081235,-0.0081235
1427956582574,-0.0029344,-0.0029344,-0.0029344
1427956582645,-0.0036409,-0.0036409,-0.0036409
1427956582720,-0.0032768,-0.0032768,-0.0032768
1427956582772,-0.0039491,-0.0039491,-0.0039491
1427956582831,-0.0055542,-0.0055542,-0.0055542
1427956582903,-0.0029988,-0.0029988,-0.0029988
1427956582970,-0.0037257,-0.0037257,-0.0037257
1427956583030,0.0021710,0.0021710,0.0021710
1427956583100,0.0049539,0.0049539,0.0049539
1427956583170,0.0034585,0.0034585,0.0034585
1427956583230,0.0001130,0.0001130,0.0001130
1427956583300,-0.0038986,-0.0038986,-0.0038986
1427956583361,-0.0065088,-0.0065088,-0.0065088
1427956583433,0.0000481,0.0000481,0.0000481
1427956583492,-0.0090721,-0.0090721,-0.0090721
1427956583563,-0.0081649,-0.0081649,-0.0081649
1427956583636,-0.0063484,-0.0063484,-0.0063484
1427956583694,-0.0047136,-0.0047136,-0.0047136
1427956583763,-0.0022422,-0.0022422,-0.0022422
1427956583832,0.0019820,0.0019820,0.0019820
1427956583892,-0.0047599,-0.0047599,-0.0047599
1427956584033,0.0051054,0.0051054,0.0051054
1427956584043,0.0045949,0.0045949,0.0045949
1427956584090,0.0041354,0.0041354,0.0041354
1427956584151,0.0027219,0.0027219,0.0027219
1427956584222,0.0024497,0.0024497,0.0024497
1427956584291,0.0012047,0.0012047,0.0012047
1427956584353,0.0033687,0.0033687,0.0033687
1427956584421,0.0007760,0.0007760,0.0007760
1427956584482,-0.0033018,-0.0033018,-0.0033018
1427956584554,-0.0059716,-0.0059716,-0.0059716
1427956584623,-0.0043744,-0.0043744,-0.0043744
1427956584683,-0.0079370,-0.0079370,-0.0079370
1427956584754,-0.0041618,-0.0041618,-0.0041618
1427956584813,0.0019710,0.0019710,0.0019710
1427956584882,0.0047739,0.0047739,0.0047739
1427956584953,-0.0157035,-0.0157035,-0.0157035
1427956585035,-0.0361331,-0.0361331,-0.0361331
1427956585080,-0.0465198,-0.0465198,-0.0465198
1427956585150,-0.0298678,-0.0298678,-0.0298678
1427956585210,-0.0202465,-0.0202465,-0.0202465
1427956585280,-0.0196929,-0.0196929,-0.0196929
1427956585342,-0.0177236,-0.0177236,-0.0177236
1427956585411,-0.0179513,-0.0179513,-0.0179513
1427956585481,-0.0161562,-0.0161562,-0.0161562
1427956585540,-0.0115405,-0.0115405,-0.0115405
1427956585613,-0.0166129,-0.0166129,-0.0166129
1427956585673,-0.0154478,-0.0154478,-0.0154478
1427956585744,-0.0079031,-0.0079031,-0.0079031
1427956585808,-0.0041127,-0.0041127,-0.0041127
1427956585881,0.0092985,0.0092985,0.0092985
1427956585942,0.0313687,0.0313687,0.0313687
1427956586066,0.0026407,0.0026407,0.0026407
1427956586071,0.0573086,0.0573086,0.0573086
1427956586142,0.0395778,0.0395778,0.0395778
1427956586203,0.0366200,0.0366200,0.0366200
1427956586273,0.0259580,0.0259580,0.0259580
1427956586331,0.0193622,0.0193622,0.0193622
1427956586402,0.0164260,0.0164260,0.0164260
1427956586472,0.0325421,0.0325421,0.0325421
1427956586532,0.0077050,0.0077050,0.0077050
1427956586604,0.0069345,0.0069345,0.0069345
1427956586664,0.0062411,0.0062411,0.0062411
1427956586733,0.0036170,0.0036170,0.0036170
1427956586793,0.0012553,0.0012553,0.0012553
1427956586864,-0.0008700,-0.0008700,-0.0008700
1427956586933,0.0041471,0.0041471,0.0041471
1427956586994,-0.0027049,-0.0027049,-0.0027049
1427956587105,-0.0024344,-0.0024344,-0.0024344
1427956587130,-0.0011910,-0.0011910,-0.0011910
1427956587195,0.0019281,0.0019281,0.0019281
1427956587261,0.0037353,0.0037353,0.0037353
1427956587322,0.0053618,0.0053618,0.0053618
1427956587404,0.0007820,0.0007820,0.0007820
1427956587455,0.0042430,0.0042430,0.0042430
1427956587522,0.0028187,0.0028187,0.0028187
1427956587594,0.0035369,0.0035369,0.0035369
1427956587653,0.0061832,0.0061832,0.0061832
1427956587742,0.0055649,0.0055649,0.0055649
1427956587786,0.0050084,0.0050084,0.0050084
1427956587863,0.0045592,0.0045592,0.0045592
1427956587923,-0.0018432,-0.0018432,-0.0018432
1427956587995,-0.0046589,-0.0046589,-0.0046589
1427956588075,-0.0081930,-0.0081930,-0.0081930
1427956588120,-0.0083737,-0.0083737,-0.0083737
1427956588183,-0.0085363,-0.0085363,-0.0085363
1427956588253,-0.0076827,-0.0076827,-0.0076827
1427956588312,-0.0065480,-0.0065480,-0.0065480
1427956588467,-0.0032230,-0.0032230,-0.0032230
1427956588468,-0.0029007,-0.0029007,-0.0029007
1427956588511,-0.0036106,-0.0036106,-0.0036106
1427956588583,-0.0032496,-0.0032496,-0.0032496
1427956588645,-0.0039246,-0.0039246,-0.0039246
1427956588714,-0.0033817,-0.0033817,-0.0033817
1427956588773,-0.0031789,-0.0031789,-0.0031789
1427956588843,-0.0028610,-0.0028610,-0.0028610
1427956588912,-0.0055749,-0.0055749,-0.0055749
1427956588995,-0.0050174,-0.0050174,-0.0050174
1427956589101,0.0034843,0.0034843,0.0034843
1427956589111,0.0161359,0.0161359,0.0161359
1427956589171,0.0004980,0.0004980,0.0004980
1427956589246,0.0463701,0.0463701,0.0463701
1427956589302,0.0587331,0.0587331,0.0587331
1427956589371,0.0698597,0.0698597,0.0698597
1427956589432,0.0788738,0.0788738,0.0788738
1427956589503,0.0859864,0.0859864,0.0859864
1427956589573,0.0679646,0.0679646,0.0679646
1427956589636,0.0814490,0.0814490,0.0814490
1427956589703,0.0723041,0.0723041,0.0723041
1427956589763,0.0630737,0.0630737,0.0630737
1427956589836,0.0537663,0.0537663,0.0537663
1427956589903,0.0443897,0.0443897,0.0443897
1427956589992,0.0629965,0.0629965,0.0629965
1427956590043,0.0293556,0.0293556,0.0293556
1427956590100,0.0234201,0.0234201,0.0234201
1427956590173,0.0200781,0.0200781,0.0200781
1427956590231,0.0250703,0.0250703,0.0250703
1427956590294,0.0285632,0.0285632,0.0285632
1427956590372,0.0357069,0.0357069,0.0357069
1427956590421,0.0270324,0.0270324,0.0270324
1427956590494,0.0595226,0.0595226,0.0595226
1427956590566,0.0735703,0.0735703,0.0735703
1427956590623,0.0762133,0.0762133,0.0762133
1427956590694,0.0685920,0.0685920,0.0685920
1427956590752,0.0577328,0.0577328,0.0577328
1427956590823,0.0671262,0.0671262,0.0671262
1427956590901,0.0332636,0.0332636,0.0332636
1427956590957,0.0239372,0.0239372,0.0239372
1427956591054,0.0215435,0.0215435,0.0215435
1427956591090,0.0193891,0.0193891,0.0193891
1427956591150,0.0214502,0.0214502,0.0214502
1427956591220,0.0243052,0.0243052,0.0243052
1427956591280,0.0239815,0.0239815,0.0239815
1427956591351,0.0300872,0.0300872,0.0300872
1427956591420,0.0260785,0.0260785,0.0260785
1427956591480,0.0234706,0.0234706,0.0234706
1427956591553,0.0191236,0.0191236,0.0191236
1427956591613,0.0132112,0.0132112,0.0132112
1427956591683,0.0223942,0.0223942,0.0223942
1427956591741,0.0040011,0.0040011,0.0040011
1427956591814,0.0026010,0.0026010,0.0026010
1427956591880,0.0083409,0.0083409,0.0083409
1427956591951,0.0135068,0.0135068,0.0135068
1427956592031,0.0151561,0.0151561,0.0151561
1427956592080,0.0096405,0.0096405,0.0096405
1427956592143,0.0088744,0.0088744,0.0088744
1427956592214,0.0059088,0.0059088,0.0059088
1427956592273,0.0053179,0.0053179,0.0053179
1427956592343,0.0107861,0.0107861,0.0107861
1427956592400,0.0117075,0.0117075,0.0117075
1427956592471,0.0105368,0.0105368,0.0105368
1427956592544,0.0088514,0.0088514,0.0088514
1427956592603,0.0075348,0.0075348,0.0075348
1427956592673,0.0047813,0.0047813,0.0047813
1427956592733,0.0083032,0.0083032,0.0083032
1427956592803,0.0104729,0.0104729,0.0104729
1427956592872,0.0184256,0.0184256,0.0184256
1427956592932,0.0245830,0.0245830,0.0245830
1427956593003,0.0123501,0.0123501,0.0123501
1427956593084,0.0275122,0.0275122,0.0275122
1427956593130,0.0247610,0.0247610,0.0247610
1427956593203,0.0212849,0.0212849,0.0212849
1427956593263,0.0171564,0.0171564,0.0171564
1427956593333,0.0174408,0.0174408,0.0174408
1427956593417,0.0216311,0.0216311,0.0216311
1427956593463,0.0199270,0.0199270,0.0199270
1427956593531,0.0249343,0.0249343,0.0249343
1427956593593,0.0284409,0.0284409,0.0284409
1427956593661,0.0275968,0.0275968,0.0275968
1427956593723,0.0308371,0.0308371,0.0308371
1427956593794,0.0307534,0.0307534,0.0307534
1427956593863,0.0270816,0.0270816,0.0270816
1427956593921,0.0450103,0.0450103,0.0450103
1427956594001,0.0375092,0.0375092,0.0375092
1427956594111,0.0297583,0.0297583,0.0297583
1427956594120,0.0257825,0.0257825,0.0257825
1427956594193,0.0242042,0.0242042,0.0242042
1427956594253,0.0267838,0.0267838,0.0267838
1427956594323,0.0315081,0.0315081,0.0315081
1427956594393,0.0380949,0.0380949,0.0380949
1427956594458,0.0462854,0.0462854,0.0462854
1427956594521,0.0526569,0.0526569,0.0526569
1427956594581,0.0503912,0.0503912,0.0503912
1427956594651,0.0453521,0.0453521,0.0453521
1427956594712,0.0408169,0.0408169,0.0408169
1427956594783,0.0455995,0.0455995,0.0455995
1427956594865,0.0280616,0.0280616,0.0280616
1427956594911,0.0192555,0.0192555,0.0192555
1427956594993,0.0213299,0.0213299,0.0213299
1427956595087,0.0441969,0.0441969,0.0441969
1427956595111,0.0667772,0.0667772,0.0667772
1427956595182,0.0630995,0.0630995,0.0630995
1427956595244,0.0404535,0.0404535,0.0404535
1427956595314,0.0710106,0.0710106,0.0710106
1427956595384,0.0619096,0.0619096,0.0619096
1427956595446,0.0537186,0.0537186,0.0537186
1427956595513,0.0503467,0.0503467,0.0503467
1427956595574,0.0473121,0.0473121,0.0473121
1427956595641,0.0445809,0.0445809,0.0445809
1427956595703,0.0548131,0.0548131,0.0548131
1427956595773,0.0493105,0.0493105,0.0493105
1427956595853,0.0453794,0.0453794,0.0453794
1427956595901,0.0388415,0.0388415,0.0388415
1427956595971,0.0299573,0.0299573,0.0299573
1427956596042,0.0199616,0.0199616,0.0199616
1427956596100,0.0069655,0.0069655,0.0069655
1427956596170,0.0317360,0.0317360,0.0317360
1427956596231,0.0091420,0.0091420,0.0091420
1427956596303,0.0252278,0.0252278,0.0252278
1427956596373,0.0427050,0.0427050,0.0427050
1427956596431,0.0534345,0.0534345,0.0534345
1427956596504,0.0450911,0.0450911,0.0450911
1427956596563,0.0405820,0.0405820,0.0405820
1427956596674,0.0360304,0.0360304,0.0360304
1427956596702,0.0403714,0.0403714,0.0403714
1427956596761,0.0423343,0.0423343,0.0423343
1427956596833,0.0331008,0.0331008,0.0331008
1427956596892,0.0227907,0.0227907,0.0227907
1427956596965,0.0175117,0.0175117,0.0175117
1427956597035,0.0207605,0.0207605,0.0207605
1427956597091,0.0294782,0.0294782,0.0294782
1427956597163,0.0234160,0.0234160,0.0234160
1427956597223,0.0230744,0.0230744,0.0230744
1427956597294,0.0237670,0.0237670,0.0237670
1427956597367,0.0193903,0.0193903,0.0193903
1427956597422,0.0174512,0.0174512,0.0174512
1427956597499,0.0214198,0.0214198,0.0214198
1427956597552,0.0208355,0.0208355,0.0208355
1427956597623,0.0197520,0.0197520,0.0197520
1427956597691,0.0197768,0.0197768,0.0197768
1427956597751,0.0207991,0.0207991,0.0207991
1427956597820,0.0217192,0.0217192,0.0217192
1427956597882,0.0215473,0.0215473,0.0215473
1427956597981,0.0207383,0.0207383,0.0207383
1427956598068,0.0115533,0.0115533,0.0115533
1427956598085,0.0093980,0.0093980,0.0093980
1427956598152,0.0074582,0.0074582,0.0074582
1427956598214,0.0087123,0.0087123,0.0087123
1427956598286,0.0148411,0.0148411,0.0148411
1427956598345,0.0173570,0.0173570,0.0173570
1427956598412,0.0115533,0.0115533,0.0115533
1427956598545,0.0236592,0.0236592,0.0236592
1427956598546,0.0282933,0.0282933,0.0282933
1427956598611,0.0294639,0.0294639,0.0294639
1427956598672,0.0355175,0.0355175,0.0355175
1427956598741,0.0439658,0.0439658,0.0439658
1427956598811,0.0465692,0.0465692,0.0465692
1427956598871,0.0345781,0.0345781,0.0345781
1427956598942,0.0499211,0.0499211,0.0499211
1427956599018,0.0499290,0.0499290,0.0499290
1427956599070,0.0509361,0.0509361,0.0509361
1427956599145,0.0458425,0.0458425,0.0458425
1427956599202,0.0422582,0.0422582,0.0422582
1427956599273,0.0477773,0.0477773,0.0477773
1427956599333,0.0379291,0.0379291,0.0379291
1427956599405,0.0351362,0.0351362,0.0351362
1427956599471,0.0356226,0.0356226,0.0356226
1427956599533,0.0380604,0.0380604,0.0380604
1427956599603,0.0362543,0.0362543,0.0362543
1427956599663,0.0336289,0.0336289,0.0336289
1427956599733,0.0361053,0.0361053,0.0361053
1427956599801,0.0272394,0.0272394,0.0272394
1427956599862,0.0215155,0.0215155,0.0215155
1427956599951,0.0153639,0.0153639,0.0153639
1427956600026,0.0088275,0.0088275,0.0088275
1427956600060,0.0049448,0.0049448,0.0049448
1427956600130,0.0034503,0.0034503,0.0034503
1427956600190,0.0135569,0.0135569,0.0135569
1427956600260,0.0078947,0.0078947,0.0078947
1427956600321,0.0121053,0.0121053,0.0121053
1427956600396,0.0108947,0.0108947,0.0108947
1427956600464,0.0098053,0.0098053,0.0098053
1427956600525,0.0048247,0.0048247,0.0048247
1427956600594,0.0091049,0.0091049,0.0091049
1427956600653,0.0043080,0.0043080,0.0043080
1427956600725,0.0078772,0.0078772,0.0078772
1427956600794,0.0120895,0.0120895,0.0120895
1427956600851,0.0188806,0.0188806,0.0188806
1427956600926,0.0189925,0.0189925,0.0189925
1427956601063,0.0124296,0.0124296,0.0124296
1427956601079,0.0276839,0.0276839,0.0276839
1427956601120,0.0239155,0.0239155,0.0239155
1427956601180,0.0175240,0.0175240,0.0175240
1427956601251,0.0117716,0.0117716,0.0117716
1427956601311,0.0065944,0.0065944,0.0065944
1427956601381,0.0039350,0.0039350,0.0039350
1427956601452,0.0025415,0.0025415,0.0025415
1427956601517,0.0134237,0.0134237,0.0134237
1427956601586,0.0150586,0.0150586,0.0150586
1427956601644,0.0265527,0.0265527,0.0265527
1427956601713,0.0188975,0.0188975,0.0188975
1427956601786,-0.0059923,-0.0059923,-0.0059923
1427956601845,-0.0073931,-0.0073931,-0.0073931
1427956601911,-0.0106537,-0.0106537,-0.0106537
1427956602011,0.0060783,0.0060783,0.0060783
1427956602044,-0.0131295,-0.0131295,-0.0131295
1427956602110,-0.0028166,-0.0028166,-0.0028166
1427956602170,0.0024651,0.0024651,0.0024651
1427956602243,0.0082186,0.0082186,0.0082186
1427956602307,0.0103967,0.0103967,0.0103967
1427956602373,0.0113570,0.0113570,0.0113570
1427956602455,0.0027485,0.0027485,0.0027485
1427956602502,0.0041992,0.0041992,0.0041992
1427956602573,0.0037793,0.0037793,0.0037793
1427956602633,0.0044014,0.0044014,0.0044014
1427956602703,0.0069612,0.0069612,0.0069612
1427956602773,0.0152651,0.0152651,0.0152651
1427956602836,0.0237386,0.0237386,0.0237386
1427956602902,0.0097241,0.0097241,0.0097241
1427956602970,0.0100283,0.0100283,0.0100283
1427956603030,-0.0059746,-0.0059746,-0.0059746
1427956603103,-0.0233771,-0.0233771,-0.0233771
1427956603161,-0.0340394,-0.0340394,-0.0340394
1427956603230,-0.0336355,-0.0336355,-0.0336355
1427956603304,-0.0173997,-0.0173997,-0.0173997
1427956603363,-0.0077447,-0.0077447,-0.0077447
1427956603452,0.0020297,0.0020297,0.0020297
1427956603494,0.0028268,0.0028268,0.0028268
1427956603563,-0.0014559,-0.0014559,-0.0014559
1427956603624,-0.0063103,-0.0063103,-0.0063103
1427956603695,-0.0126793,-0.0126793,-0.0126793
1427956603763,-0.0038890,-0.0038890,-0.0038890
1427956603823,-0.0195702,-0.0195702,-0.0195702
1427956603895,-0.0156132,-0.0156132,-0.0156132
1427956603953,-0.0080519,-0.0080519,-0.0080519
1427956604030,-0.0042467,-0.0042467,-0.0042467
1427956604091,0.0001780,0.0001780,0.0001780
1427956604151,0.0011602,0.0011602,0.0011602
1427956604221,-0.0076906,-0.0076906,-0.0076906
1427956604280,-0.0010603,-0.0010603,-0.0010603
1427956604353,-0.0039542,-0.0039542,-0.0039542
1427956604423,-0.0065588,-0.0065588,-0.0065588
1427956604481,-0.0069029,-0.0069029,-0.0069029
1427956604553,-0.0052126,-0.0052126,-0.0052126
1427956604613,-0.0016914,-0.0016914,-0.0016914
1427956604686,-0.0042300,-0.0042300,-0.0042300
1427956604753,0.0033300,0.0033300,0.0033300
1427956604812,0.0019970,0.0019970,0.0019970
1427956604883,0.0017973,0.0017973,0.0017973
1427956604956,-0.0013824,-0.0013824,-0.0013824
1427956605046,-0.0032442,-0.0032442,-0.0032442
1427956605080,-0.0059198,-0.0059198,-0.0059198
1427956605142,-0.0005700,-0.0005700,-0.0005700
1427956605213,-0.0065950,-0.0065950,-0.0065950
1427956605281,-0.0059355,-0.0059355,-0.0059355
1427956605340,-0.0033420,-0.0033420,-0.0033420
1427956605414,-0.0000078,-0.0000078,-0.0000078
1427956605473,0.0059930,0.0059930,0.0059930
1427956605544,-0.0019775,-0.0019775,-0.0019775
1427956605604,0.0065543,0.0065543,0.0065543
1427956605673,0.0078989,0.0078989,0.0078989
1427956605745,0.0101090,0.0101090,0.0101090
1427956605803,0.0110981,0.0110981,0.0110981
1427956605873,0.0089883,0.0089883,0.0089883
1427956605955,0.0089297,0.0089297,0.0089297
1427956606049,0.0033805,0.0033805,0.0033805
1427956606070,-0.0009580,-0.0009580,-0.0009580
1427956606131,-0.0038618,-0.0038618,-0.0038618
1427956606202,-0.0034756,-0.0034756,-0.0034756
1427956606263,-0.0031280,-0.0031280,-0.0031280
1427956606336,-0.0038152,-0.0038152,-0.0038152
1427956606428,-0.0019763,-0.0019763,-0.0019763
1427956606460,-0.0079903,-0.0079903,-0.0079903
1427956606530,-0.0191913,-0.0191913,-0.0191913
1427956606594,-0.0292722,-0.0292722,-0.0292722
1427956606663,-0.0233450,-0.0233450,-0.0233450
1427956606736,-0.0100105,-0.0100105,-0.0100105
1427956606794,-0.0090094,-0.0090094,-0.0090094
1427956606863,-0.0164698,-0.0164698,-0.0164698
1427956606932,0.0055024,0.0055024,0.0055024
1427956607026,0.0089521,0.0089521,0.0089521
1427956607060,0.0140569,0.0140569,0.0140569
1427956607122,0.0156512,0.0156512,0.0156512
1427956607194,0.0130861,0.0130861,0.0130861
1427956607256,0.0097775,0.0097775,0.0097775
1427956607322,0.0111710,0.0111710,0.0111710
1427956607394,0.0118198,0.0118198,0.0118198
1427956607457,0.0226378,0.0226378,0.0226378
1427956607520,0.0323740,0.0323740,0.0323740
1427956607582,0.0331366,0.0331366,0.0331366
1427956607656,0.0218230,0.0218230,0.0218230
1427956607723,0.0243582,0.0243582,0.0243582
1427956607781,0.0014766,0.0014766,0.0014766
1427956607853,-0.0096711,-0.0096711,-0.0096711
1427956607915,-0.0157040,-0.0157040,-0.0157040
1427956608027,-0.0061336,-0.0061336,-0.0061336
1427956608051,0.0044798,0.0044798,0.0044798
1427956608111,0.0240318,0.0240318,0.0240318
1427956608183,-0.0002530,-0.0002530,-0.0002530
1427956608244,0.0697658,0.0697658,0.0697658
1427956608313,0.0847892,0.0847892,0.0847892
1427956608386,0.0913103,0.0913103,0.0913103
1427956608466,0.0901792,0.0901792,0.0901792
1427956608511,0.0821613,0.0821613,0.0821613
1427956608632,0.0836412,0.0836412,0.0836412
1427956608641,0.0579507,0.0579507,0.0579507
1427956608710,0.0491556,0.0491556,0.0491556
1427956608773,0.0442400,0.0442400,0.0442400
1427956608843,0.0398160,0.0398160,0.0398160
1427956608903,0.0388344,0.0388344,0.0388344
1427956608996,0.0389510,0.0389510,0.0389510
1427956609044,0.0448246,0.0448246,0.0448246
1427956609100,0.0429503,0.0429503,0.0429503
1427956609171,0.0446553,0.0446553,0.0446553
1427956609236,0.0421897,0.0421897,0.0421897
1427956609303,0.0479708,0.0479708,0.0479708
1427956609373,0.0501737,0.0501737,0.0501737
1427956609460,0.0455880,0.0455880,0.0455880
1427956609501,0.0541407,0.0541407,0.0541407
1427956609563,0.0567266,0.0567266,0.0567266
1427956609643,0.0580540,0.0580540,0.0580540
1427956609700,0.0502486,0.0502486,0.0502486
1427956609760,0.0462237,0.0462237,0.0462237
1427956609836,0.0376013,0.0376013,0.0376013
1427956609893,0.0504991,0.0504991,0.0504991
1427956609994,0.0170571,0.0170571,0.0170571
1427956610041,0.0223514,0.0223514,0.0223514
1427956610090,0.0231162,0.0231162,0.0231162
1427956610160,0.0208046,0.0208046,0.0208046
1427956610231,0.0147242,0.0147242,0.0147242
1427956610290,0.0062517,0.0062517,0.0062517
1427956610363,0.0173842,0.0173842,0.0173842
1427956610451,0.0005640,0.0005640,0.0005640
1427956610492,0.0085075,0.0085075,0.0085075
1427956610552,0.0186568,0.0186568,0.0186568
1427956610623,0.0227911,0.0227911,0.0227911
1427956610694,0.0225120,0.0225120,0.0225120
1427956610752,0.0142608,0.0142608,0.0142608
1427956610821,0.0145487,0.0145487,0.0145487
1427956610886,0.0021512,0.0021512,0.0021512
1427956610954,-0.0030639,-0.0030639,-0.0030639
1427956611026,-0.0067575,-0.0067575,-0.0067575
1427956611081,-0.0040818,-0.0040818,-0.0040818
1427956611152,-0.0036736,-0.0036736,-0.0036736
1427956611212,0.0066938,0.0066938,0.0066938
1427956611281,-0.0014553,-0.0014553,-0.0014553
1427956611351,0.0251220,0.0251220,0.0251220
1427956611411,0.0366098,0.0366098,0.0366098
1427956611483,0.0479488,0.0479488,0.0479488
1427956611544,0.0531539,0.0531539,0.0531539
1427956611613,0.0498385,0.0498385,0.0498385
1427956611686,0.0425346,0.0425346,0.0425346
1427956611743,0.0421692,0.0421692,0.0421692
1427956611822,0.0449523,0.0449523,0.0449523
1427956611881,0.0434571,0.0434571,0.0434571
1427956611941,0.0471113,0.0471113,0.0471113
1427956612040,0.0544002,0.0544002,0.0544002
1427956612070,0.0519602,0.0519602,0.0519602
1427956612142,0.0473417,0.0473417,0.0473417
1427956612203,0.0475878,0.0475878,0.0475878
1427956612272,0.0428290,0.0428290,0.0428290
1427956612341,0.0455461,0.0455461,0.0455461
1427956612402,0.0479915,0.0479915,0.0479915
1427956612473,0.0471923,0.0471923,0.0471923
1427956612536,0.0504731,0.0504731,0.0504731
1427956612603,0.0469366,0.0469366,0.0469366
1427956612673,0.0532832,0.0532832,0.0532832
1427956612736,0.0529549,0.0529549,0.0529549
1427956612803,0.0486594,0.0486594,0.0486594
1427956612863,0.0437935,0.0437935,0.0437935
1427956613050,0.0496727,0.0496727,0.0496727
1427956613053,0.0336727,0.0336727,0.0336727
1427956613060,0.0343054,0.0343054,0.0343054
1427956613143,0.0368749,0.0368749,0.0368749
1427956613194,0.0381874,0.0381874,0.0381874
1427956613263,0.0423687,0.0423687,0.0423687
1427956613333,0.0391318,0.0391318,0.0391318
1427956613392,0.0282186,0.0282186,0.0282186
1427956613468,0.0361085,0.0361085,0.0361085
1427956613522,0.0216571,0.0216571,0.0216571
1427956613594,0.0634914,0.0634914,0.0634914
1427956613663,0.0571422,0.0571422,0.0571422
1427956613723,0.0474280,0.0474280,0.0474280
1427956613793,0.0396852,0.0396852,0.0396852
1427956613853,0.0287167,0.0287167,0.0287167
1427956613924,0.0430201,0.0430201,0.0430201
1427956614062,0.0087605,0.0087605,0.0087605
1427956614066,0.0128845,0.0128845,0.0128845
1427956614120,0.0145960,0.0145960,0.0145960
1427956614194,0.0231364,0.0231364,0.0231364
1427956614253,0.0258228,0.0258228,0.0258228
1427956614323,0.0242405,0.0242405,0.0242405
1427956614381,0.0182401,0.0182401,0.0182401
1427956614453,0.0207348,0.0207348,0.0207348
1427956614528,0.0196613,0.0196613,0.0196613
1427956614586,0.0156952,0.0156952,0.0156952
1427956614653,0.0221257,0.0221257,0.0221257
1427956614712,0.0229131,0.0229131,0.0229131
1427956614786,0.0202260,0.0202260,0.0202260
1427956614844,0.0451596,0.0451596,0.0451596
1427956614913,0.0496437,0.0496437,0.0496437
1427956615003,0.0466793,0.0466793,0.0466793
1427956615091,0.0360114,0.0360114,0.0360114
1427956615110,0.0294102,0.0294102,0.0294102
1427956615187,0.0413808,0.0413808,0.0413808
1427956615244,0.0164223,0.0164223,0.0164223
1427956615313,0.0107801,0.0107801,0.0107801
1427956615373,0.0077020,0.0077020,0.0077020
1427956615443,0.0079318,0.0079318,0.0079318
1427956615501,0.0121387,0.0121387,0.0121387
1427956615573,0.0159248,0.0159248,0.0159248
1427956615643,0.0118166,0.0118166,0.0118166
1427956615703,0.0272991,0.0272991,0.0272991
1427956615773,0.0275692,0.0275692,0.0275692
1427956615833,0.0248123,0.0248123,0.0248123
1427956615903,0.0233310,0.0233310,0.0233310
1427956616004,0.0249979,0.0249979,0.0249979
1427956616075,0.0256019,0.0256019,0.0256019
1427956616100,0.0256483,0.0256483,0.0256483
1427956616160,0.0230835,0.0230835,0.0230835
1427956616236,0.0207751,0.0207751,0.0207751
1427956616310,0.0186976,0.0186976,0.0186976
1427956616365,0.0158279,0.0158279,0.0158279
1427956616442,0.0172451,0.0172451,0.0172451
1427956616501,0.0202129,0.0202129,0.0202129
1427956616561,0.0196685,0.0196685,0.0196685
1427956616637,0.0247017,0.0247017,0.0247017
1427956616694,0.0322315,0.0322315,0.0322315
1427956616763,0.0430083,0.0430083,0.0430083
1427956616823,0.0437075,0.0437075,0.0437075
1427956616894,0.0393368,0.0393368,0.0393368
1427956616962,0.0337757,0.0337757,0.0337757
1427956617025,0.0357628,0.0357628,0.0357628
1427956617090,0.0341865,0.0341865,0.0341865
1427956617159,0.0327678,0.0327678,0.0327678
1427956617223,0.0294911,0.0294911,0.0294911
1427956617294,0.0255420,0.0255420,0.0255420
1427956617353,0.0279878,0.0279878,0.0279878
1427956617423,0.0309563,0.0309563,0.0309563
1427956617482,0.0351701,0.0351701,0.0351701
1427956617551,0.0346531,0.0346531,0.0346531
1427956617623,0.0351878,0.0351878,0.0351878
1427956617683,0.0316690,0.0316690,0.0316690
1427956617752,0.0265021,0.0265021,0.0265021
1427956617810,0.0178519,0.0178519,0.0178519
1427956617883,0.0301723,0.0301723,0.0301723
1427956617953,0.0095600,0.0095600,0.0095600
1427956618066,0.0166040,0.0166040,0.0166040
1427956618080,0.0269436,0.0269436,0.0269436
1427956618141,0.0382493,0.0382493,0.0382493
1427956618210,0.0404243,0.0404243,0.0404243
1427956618281,0.0383819,0.0383819,0.0383819
1427956618343,0.0283605,0.0283605,0.0283605
1427956618413,0.0485893,0.0485893,0.0485893
1427956618473,0.0517304,0.0517304,0.0517304
1427956618544,0.0535574,0.0535574,0.0535574
1427956618612,0.0542016,0.0542016,0.0542016
1427956618703,0.0517815,0.0517815,0.0517815
1427956618747,0.0519720,0.0519720,0.0519720
1427956618801,0.0382430,0.0382430,0.0382430
1427956618873,0.0384187,0.0384187,0.0384187
1427956618948,0.0385768,0.0385768,0.0385768
1427956619045,0.0367191,0.0367191,0.0367191
1427956619070,0.0360472,0.0360472,0.0360472
1427956619130,0.0344425,0.0344425,0.0344425
1427956619203,0.0370746,0.0370746,0.0370746
1427956619272,0.0268984,0.0268984,0.0268984
1427956619331,0.0212086,0.0212086,0.0212086
1427956619403,0.0170877,0.0170877,0.0170877
1427956619462,0.0143790,0.0143790,0.0143790
1427956619533,0.0159411,0.0159411,0.0159411
1427956619603,0.0213470,0.0213470,0.0213470
1427956619662,0.0194769,0.0194769,0.0194769
1427956619733,0.0238910,0.0238910,0.0238910
1427956619795,0.0235019,0.0235019,0.0235019
1427956619863,0.0191517,0.0191517,0.0191517
1427956619932,0.0162366,0.0162366,0.0162366
1427956619996,0.0296129,0.0296129,0.0296129
1427956620124,0.0224788,0.0224788,0.0224788
1427956620133,0.0431865,0.0431865,0.0431865
1427956620200,0.0418678,0.0418678,0.0418678
1427956620260,0.0346810,0.0346810,0.0346810
1427956620320,0.0282129,0.0282129,0.0282129
1427956620390,0.0223916,0.0223916,0.0223916
1427956620460,0.0111525,0.0111525,0.0111525
1427956620520,0.0020372,0.0020372,0.0020372
1427956620594,0.0262185,0.0262185,0.0262185
1427956620653,-0.0019498,-0.0019498,-0.0019498
1427956620721,0.0042451,0.0042451,0.0042451
1427956620782,0.0078206,0.0078206,0.0078206
1427956620853,0.0140386,0.0140386,0.0140386
1427956620923,0.0156347,0.0156347,0.0156347
1427956620988,0.0140712,0.0140712,0.0140712
1427956621078,0.0089767,0.0089767,0.0089767
1427956621120,0.0075977,0.0075977,0.0075977
1427956621181,0.0068379,0.0068379,0.0068379
1427956621253,0.0061541,0.0061541,0.0061541
1427956621312,0.0065387,0.0065387,0.0065387
1427956621400,0.0058849,0.0058849,0.0058849
1427956621450,0.0082964,0.0082964,0.0082964
1427956621512,0.0068850,0.0068850,0.0068850
1427956621581,0.0058201,0.0058201,0.0058201
1427956621643,0.0052381,0.0052381,0.0052381
1427956621711,0.0047142,0.0047142,0.0047142
1427956621772,0.0052428,0.0052428,0.0052428
1427956621844,0.0037185,0.0037185,0.0037185
1427956621913,0.0049467,0.0049467,0.0049467
1427956621972,0.0048120,0.0048120,0.0048120
1427956622085,0.0043308,0.0043308,0.0043308
1427956622104,0.0048977,0.0048977,0.0048977
1427956622171,0.0044080,0.0044080,0.0044080
1427956622244,0.0029672,0.0029672,0.0029672
1427956622303,0.0026704,0.0026704,0.0026704
1427956622372,0.0040144,0.0040144,0.0040144
1427956622433,0.0058631,0.0058631,0.0058631
1427956622514,0.0062768,0.0062768,0.0062768
1427956622581,0.0066491,0.0066491,0.0066491
1427956622630,0.0109842,0.0109842,0.0109842
1427956622703,0.0148858,0.0148858,0.0148858
1427956622771,0.0103972,0.0103972,0.0103972
1427956622832,0.0091760,0.0091760,0.0091760
1427956622903,-0.0010783,-0.0010783,-0.0010783
1427956622987,-0.0079705,-0.0079705,-0.0079705
1427956623087,-0.0071734,-0.0071734,-0.0071734
1427956623101,-0.0054561,-0.0054561,-0.0054561
1427956623161,0.0000895,0.0000895,0.0000895
1427956623233,-0.0043177,-0.0043177,-0.0043177
1427956623294,0.0108725,0.0108725,0.0108725
1427956623363,0.0157853,0.0157853,0.0157853
1427956623422,0.0182067,0.0182067,0.0182067
1427956623497,0.0173861,0.0173861,0.0173861
1427956623561,0.0136475,0.0136475,0.0136475
1427956623623,0.0122827,0.0122827,0.0122827
1427956623693,0.0146968,0.0146968,0.0146968
1427956623751,0.0100490,0.0100490,0.0100490
1427956623822,0.0130441,0.0130441,0.0130441
1427956623894,0.0157397,0.0157397,0.0157397
1427956623953,0.0181657,0.0181657,0.0181657
1427956624077,0.0203491,0.0203491,0.0203491
1427956624090,0.0213142,0.0213142,0.0213142
1427956624153,0.0164437,0.0164437,0.0164437
1427956624223,0.0219645,0.0219645,0.0219645
1427956624282,0.0217681,0.0217681,0.0217681
1427956624353,0.0215913,0.0215913,0.0215913
1427956624412,0.0204321,0.0204321,0.0204321
1427956624483,0.0193889,0.0193889,0.0193889
1427956624573,0.0210290,0.0210290,0.0210290
1427956624611,0.0186050,0.0186050,0.0186050
1427956624697,0.0177445,0.0177445,0.0177445
1427956624759,0.0169701,0.0169701,0.0169701
1427956624810,0.0162731,0.0162731,0.0162731
1427956624883,0.0186458,0.0186458,0.0186458
1427956624944,0.0327812,0.0327812,0.0327812
1427956625059,0.0201699,0.0201699,0.0201699
1427956625080,0.0430528,0.0430528,0.0430528
1427956625142,0.0317475,0.0317475,0.0317475
1427956625212,0.0255727,0.0255727,0.0255727
1427956625272,0.0110155,0.0110155,0.0110155
1427956625344,-0.0150861,-0.0150861,-0.0150861
1427956625411,-0.0145775,-0.0145775,-0.0145775
1427956625472,0.0136208,0.0136208,0.0136208
1427956625553,-0.0178078,-0.0178078,-0.0178078
1427956625601,-0.0140270,-0.0140270,-0.0140270
1427956625673,-0.0096243,-0.0096243,-0.0096243
1427956625736,-0.0086619,-0.0086619,-0.0086619
1427956625804,-0.0047957,-0.0047957,-0.0047957
1427956625871,-0.0043161,-0.0043161,-0.0043161
1427956625930,-0.0098721,-0.0098721,-0.0098721
1427956626000,-0.0050960,-0.0050960,-0.0050960
1427956626070,0.0054136,0.0054136,0.0054136
1427956626131,0.0168722,0.0168722,0.0168722
1427956626203,0.0181850,0.0181850,0.0181850
1427956626263,0.0133665,0.0133665,0.0133665
1427956626333,0.0097482,0.0097482,0.0097482
1427956626394,-0.0069731,-0.0069731,-0.0069731
1427956626463,-0.0062758,-0.0062758,-0.0062758
1427956626533,-0.0036482,-0.0036482,-0.0036482
1427956626597,0.0167166,0.0167166,0.0167166
1427956626662,0.0320449,0.0320449,0.0320449
1427956626723,0.0378404,0.0378404,0.0378404
1427956626794,0.0116174,0.0116174,0.0116174
1427956626861,0.0277507,0.0277507,0.0277507
1427956626920,0.0199757,0.0199757,0.0199757
1427956627036,0.0129781,0.0129781,0.0129781
1427956627051,0.0096803,0.0096803,0.0096803
1427956627121,0.0077123,0.0077123,0.0077123
1427956627195,0.0156194,0.0156194,0.0156194
1427956627253,0.0062469,0.0062469,0.0062469
1427956627323,0.0086222,0.0086222,0.0086222
1427956627383,0.0077600,0.0077600,0.0077600
1427956627453,0.0089840,0.0089840,0.0089840
1427956627523,0.0080856,0.0080856,0.0080856
1427956627582,0.0072771,0.0072771,0.0072771
1427956627651,0.0078293,0.0078293,0.0078293
1427956627711,0.0040944,0.0040944,0.0040944
1427956627814,0.0046850,0.0046850,0.0046850
1427956627852,0.0042165,0.0042165,0.0042165
1427956627912,0.0057948,0.0057948,0.0057948
1427956628070,0.0046977,0.0046977,0.0046977
1427956628078,0.0093938,0.0093938,0.0093938
1427956628110,0.0054544,0.0054544,0.0054544
1427956628181,0.0039090,0.0039090,0.0039090
1427956628244,0.0025181,0.0025181,0.0025181
1427956628312,0.0032663,0.0032663,0.0032663
1427956628371,0.0049397,0.0049397,0.0049397
1427956628445,0.0014457,0.0014457,0.0014457
1427956628517,0.0044181,0.0044181,0.0044181
1427956628573,-0.0064290,-0.0064290,-0.0064290
1427956628644,-0.0107861,-0.0107861,-0.0107861
1427956628703,-0.0137075,-0.0137075,-0.0137075
1427956628772,-0.0153367,-0.0153367,-0.0153367
1427956628843,-0.0158031,-0.0158031,-0.0158031
1427956628900,-0.0132228,-0.0132228,-0.0132228
1427956628974,-0.0125475,-0.0125475,-0.0125475
1427956629041,-0.0067104,-0.0067104,-0.0067104
1427956629100,-0.0050394,-0.0050394,-0.0050394
1427956629170,-0.0045355,-0.0045355,-0.0045355
1427956629231,-0.0040819,-0.0040819,-0.0040819
1427956629302,-0.0076737,-0.0076737,-0.0076737
1427956629365,-0.0109063,-0.0109063,-0.0109063
1427956629436,-0.0064912,-0.0064912,-0.0064912
1427956629503,-0.0077341,-0.0077341,-0.0077341
1427956629563,-0.0009610,-0.0009610,-0.0009610
1427956629631,0.0031353,0.0031353,0.0031353
1427956629694,0.0068218,0.0068218,0.0068218
1427956629763,0.0081396,0.0081396,0.0081396
1427956629836,0.0083257,0.0083257,0.0083257
1427956629894,0.0029546,0.0029546,0.0029546
1427956629961,0.0058438,0.0058438,0.0058438
1427956630032,0.0052594,0.0052594,0.0052594
1427956630093,0.0047335,0.0047335,0.0047335
1427956630161,-0.0047399,-0.0047399,-0.0047399
1427956630222,0.0157341,0.0157341,0.0157341
1427956630293,-0.0008390,-0.0008390,-0.0008390
1427956630353,0.0043319,0.0043319,0.0043319
1427956630424,-0.0250798,-0.0250798,-0.0250798
1427956630494,-0.0475719,-0.0475719,-0.0475719
1427956630553,-0.0688147,-0.0688147,-0.0688147
1427956630622,-0.0829332,-0.0829332,-0.0829332
1427956630688,-0.0876399,-0.0876399,-0.0876399
1427956630753,-0.0778759,-0.0778759,-0.0778759
1427956630824,-0.0649859,-0.0649859,-0.0649859
1427956630883,-0.0774795,-0.0774795,-0.0774795
1427956630953,-0.0597315,-0.0597315,-0.0597315
1427956631063,-0.0587584,-0.0587584,-0.0587584
1427956631080,-0.0428825,-0.0428825,-0.0428825
1427956631151,-0.0245943,-0.0245943,-0.0245943
1427956631210,-0.0081349,-0.0081349,-0.0081349
1427956631291,-0.0452635,-0.0452635,-0.0452635
1427956631346,0.0182108,0.0182108,0.0182108
1427956631413,0.0283897,0.0283897,0.0283897
1427956631483,0.0255507,0.0255507,0.0255507
1427956631544,0.0199956,0.0199956,0.0199956
1427956631618,0.0149961,0.0149961,0.0149961
1427956631688,0.0134965,0.0134965,0.0134965
1427956631744,0.0201066,0.0201066,0.0201066
1427956631812,0.0078321,0.0078321,0.0078321
1427956631874,0.0080489,0.0080489,0.0080489
1427956631944,0.0072440,0.0072440,0.0072440
1427956632029,0.0085196,0.0085196,0.0085196
1427956632071,0.0076677,0.0076677,0.0076677
1427956632141,0.0039009,0.0039009,0.0039009
1427956632201,0.0072022,0.0072022,0.0072022
1427956632271,-0.0006400,-0.0006400,-0.0006400
1427956632336,-0.0015762,-0.0015762,-0.0015762
1427956632403,-0.0014186,-0.0014186,-0.0014186
1427956632474,0.0017232,0.0017232,0.0017232
1427956632533,0.0035509,0.0035509,0.0035509
1427956632614,0.0003280,0.0003280,0.0003280
1427956632661,-0.0001240,-0.0001240,-0.0001240
1427956632737,-0.0001110,-0.0001110,-0.0001110
1427956632804,-0.0001000,-0.0001000,-0.0001000
1427956632863,-0.0000902,-0.0000902,-0.0000902
1427956632933,-0.0000812,-0.0000812,-0.0000812
1427956632995,0.0009270,0.0009270,0.0009270
1427956633072,0.0000700,0.0000700,0.0000700
1427956633131,0.0007510,0.0007510,0.0007510
1427956633194,0.0016757,0.0016757,0.0016757
1427956633272,0.0025082,0.0025082,0.0025082
1427956633331,0.0022573,0.0022573,0.0022573
1427956633392,0.0000316,0.0000316,0.0000316
1427956633463,0.0010284,0.0010284,0.0010284
1427956633523,0.0013753,0.0013753,0.0013753
1427956633602,0.0028330,0.0028330,0.0028330
1427956633661,0.0075497,0.0075497,0.0075497
1427956633723,0.0097948,0.0097948,0.0097948
1427956633793,0.0128153,0.0128153,0.0128153
1427956633852,0.0105338,0.0105338,0.0105338
1427956633924,0.0087053,0.0087053,0.0087053
1427956633987,0.0047323,0.0047323,0.0047323
1427956634076,0.0042591,0.0042591,0.0042591
1427956634121,0.0048332,0.0048332,0.0048332
1427956634185,0.0083499,0.0083499,0.0083499
1427956634251,0.0045149,0.0045149,0.0045149
1427956634311,0.0050634,0.0050634,0.0050634
1427956634388,0.0052921,0.0052921,0.0052921
1427956634450,0.0824014,0.0824014,0.0824014
1427956634511,0.1121612,0.1121612,0.1121612
1427956634582,0.1159451,0.1159451,0.1159451
1427956634652,0.1133506,0.1133506,0.1133506
1427956634713,0.1070155,0.1070155,0.1070155
1427956634783,0.0993140,0.0993140,0.0993140
1427956634843,0.1050313,0.1050313,0.1050313
1427956634913,0.0802443,0.0802443,0.0802443
1427956634987,0.0792199,0.0792199,0.0792199
1427956635067,0.0522979,0.0522979,0.0522979
1427956635110,0.0320681,0.0320681,0.0320681
1427956635172,0.0268613,0.0268613,0.0268613
1427956635244,0.0541383,0.0541383,0.0541383
1427956635303,-0.0042423,-0.0042423,-0.0042423
1427956635373,-0.0228181,-0.0228181,-0.0228181
1427956635444,-0.0185363,-0.0185363,-0.0185363
1427956635502,-0.0226827,-0.0226827,-0.0226827
1427956635571,-0.0124144,-0.0124144,-0.0124144
1427956635631,-0.0061730,-0.0061730,-0.0061730
1427956635705,-0.0144778,-0.0144778,-0.0144778
1427956635773,0.0079999,0.0079999,0.0079999
1427956635833,0.0101999,0.0101999,0.0101999
1427956635903,0.0081799,0.0081799,0.0081799
1427956635978,0.0063619,0.0063619,0.0063619
1427956636073,0.0067257,0.0067257,0.0067257
1427956636101,0.0090532,0.0090532,0.0090532
1427956636161,0.0080868,0.0080868,0.0080868
1427956636233,0.0073331,0.0073331,0.0073331
1427956636297,0.0075998,0.0075998,0.0075998
1427956636362,0.0088398,0.0088398,0.0088398
1427956636433,0.0089558,0.0089558,0.0089558
1427956636493,0.0050602,0.0050602,0.0050602
1427956636571,0.0075577,0.0075577,0.0075577
1427956636650,-0.0004010,-0.0004010,-0.0004010
1427956636691,-0.0003610,-0.0003610,-0.0003610
1427956636762,-0.0003250,-0.0003250,-0.0003250
1427956636826,-0.0002920,-0.0002920,-0.0002920
1427956636897,-0.0022632,-0.0022632,-0.0022632
1427956636953,-0.0000369,-0.0000369,-0.0000369
1427956637045,-0.0006130,-0.0006130,-0.0006130
1427956637090,-0.0008300,-0.0008300,-0.0008300
1427956637151,-0.0007470,-0.0007470,-0.0007470
1427956637223,0.0023278,0.0023278,0.0023278
1427956637290,0.0080950,0.0080950,0.0080950
1427956637351,0.0122855,0.0122855,0.0122855
1427956637423,0.0140570,0.0140570,0.0140570
1427956637483,0.0058647,0.0058647,0.0058647
1427956637550,0.0073861,0.0073861,0.0073861
1427956637622,0.0026475,0.0026475,0.0026475
1427956637686,-0.0016172,-0.0016172,-0.0016172
1427956637751,-0.0034555,-0.0034555,-0.0034555
1427956637815,-0.0011100,-0.0011100,-0.0011100
1427956637886,0.0007700,0.0007700,0.0007700
1427956637944,0.0020009,0.0020009,0.0020009
1427956638021,0.0028008,0.0028008,0.0028008
1427956638086,0.0005210,0.0005210,0.0005210
1427956638140,0.0004690,0.0004690,0.0004690
1427956638211,0.0044218,0.0044218,0.0044218
1427956638273,0.0069796,0.0069796,0.0069796
1427956638344,0.0028654,0.0028654,0.0028654
1427956638413,0.0063535,0.0063535,0.0063535
1427956638474,0.0037182,0.0037182,0.0037182
1427956638540,0.0003460,0.0003460,0.0003460
1427956638601,-0.0046883,-0.0046883,-0.0046883
1427956638672,-0.0092195,-0.0092195,-0.0092195
1427956638743,-0.0102975,-0.0102975,-0.0102975
1427956638874,-0.0022979,-0.0022979,-0.0022979
1427956638876,-0.0083410,-0.0083410,-0.0083410
1427956638941,-0.0065069,-0.0065069,-0.0065069
1427956639045,-0.0058562,-0.0058562,-0.0058562
1427956639073,-0.0042706,-0.0042706,-0.0042706
1427956639131,-0.0038435,-0.0038435,-0.0038435
1427956639204,0.0015408,0.0015408,0.0015408
1427956639263,0.0043867,0.0043867,0.0043867
1427956639331,-0.0032701,-0.0032701,-0.0032701
1427956639401,-0.0059467,-0.0059467,-0.0059467
1427956639463,-0.0103521,-0.0103521,-0.0103521
1427956639536,-0.0093169,-0.0093169,-0.0093169
1427956639594,-0.0093852,-0.0093852,-0.0093852
1427956639661,-0.0064467,-0.0064467,-0.0064467
1427956639737,-0.0082895,-0.0082895,-0.0082895
1427956639794,-0.0004220,-0.0004220,-0.0004220
1427956639871,0.0016204,0.0016204,0.0016204
1427956639932,0.0014584,0.0014584,0.0014584
1427956640012,0.0023125,0.0023125,0.0023125
1427956640061,0.0020813,0.0020813,0.0020813
1427956640123,-0.0001270,-0.0001270,-0.0001270
1427956640196,0.0011540,0.0011540,0.0011540
1427956640252,-0.0021028,-0.0021028,-0.0021028
1427956640323,-0.0028925,-0.0028925,-0.0028925
1427956640391,-0.0056032,-0.0056032,-0.0056032
1427956640452,-0.0090429,-0.0090429,-0.0090429
1427956640523,-0.0091386,-0.0091386,-0.0091386
1427956640583,-0.0102248,-0.0102248,-0.0102248
1427956640653,-0.0065008,-0.0065008,-0.0065008
1427956640723,-0.0053821,-0.0053821,-0.0053821
1427956640783,-0.0048438,-0.0048438,-0.0048438
1427956640853,-0.0013595,-0.0013595,-0.0013595
1427956640913,-0.0012235,-0.0012235,-0.0012235
1427956641031,-0.0001010,-0.0001010,-0.0001010
1427956641105,-0.0025820,-0.0025820,-0.0025820
1427956641110,0.0009180,0.0009180,0.0009180
1427956641187,0.0018263,0.0018263,0.0018263
1427956641244,0.0016436,0.0016436,0.0016436
1427956641313,0.0014793,0.0014793,0.0014793
1427956641382,0.0023313,0.0023313,0.0023313
1427956641440,0.0020982,0.0020982,0.0020982
1427956641512,0.0017161,0.0017161,0.0017161
1427956641573,-0.0001000,-0.0001000,-0.0001000
1427956641647,-0.0010904,-0.0010904,-0.0010904
1427956641712,-0.0019814,-0.0019814,-0.0019814
1427956641773,-0.0017832,-0.0017832,-0.0017832
1427956641844,-0.0016049,-0.0016049,-0.0016049
1427956641903,-0.0014444,-0.0014444,-0.0014444
1427956641990,-0.0013341,-0.0013341,-0.0013341
1427956642068,-0.0012700,-0.0012700,-0.0012700
1427956642108,-0.0001430,-0.0001430,-0.0001430
1427956642171,-0.0031287,-0.0031287,-0.0031287
1427956642244,-0.0078158,-0.0078158,-0.0078158
1427956642302,-0.0030342,-0.0030342,-0.0030342
1427956642373,-0.0077308,-0.0077308,-0.0077308
1427956642431,-0.0038538,-0.0038538,-0.0038538
1427956642503,-0.0002620,-0.0002620,-0.0002620
1427956642574,-0.0022358,-0.0022358,-0.0022358
1427956642631,-0.0080122,-0.0080122,-0.0080122
1427956642703,-0.0032110,-0.0032110,-0.0032110
1427956642763,0.0011101,0.0011101,0.0011101
1427956642833,-0.0025221,-0.0025221,-0.0025221
1427956642893,-0.0085008,-0.0085008,-0.0085008
1427956642983,-0.0036507,-0.0036507,-0.0036507
1427956643075,-0.0062856,-0.0062856,-0.0062856
1427956643090,-0.0096571,-0.0096571,-0.0096571
1427956643160,-0.0036914,-0.0036914,-0.0036914
1427956643222,0.0006780,0.0006780,0.0006780
1427956643293,-0.0051846,-0.0051846,-0.0051846
1427956643363,0.0009490,0.0009490,0.0009490
1427956643423,0.0048541,0.0048541,0.0048541
1427956643493,0.0003690,0.0003690,0.0003690
1427956643562,0.0053318,0.0053318,0.0053318
1427956643622,0.0117986,0.0117986,0.0117986
1427956643701,0.0046604,0.0046604,0.0046604
1427956643753,0.0059569,0.0059569,0.0059569
1427956643823,0.0083612,0.0083612,0.0083612
1427956643883,0.0035251,0.0035251,0.0035251
1427956643953,0.0021726,0.0021726,0.0021726
1427956644071,0.0069553,0.0069553,0.0069553
1427956644080,0.0102598,0.0102598,0.0102598
1427956644160,0.0062051,0.0062051,0.0062051
1427956644222,0.0137104,0.0137104,0.0137104
1427956644283,0.0123394,0.0123394,0.0123394
1427956644353,0.0091054,0.0091054,0.0091054
1427956644413,0.0081949,0.0081949,0.0081949
1427956644486,0.0053754,0.0053754,0.0053754
1427956644540,0.0048379,0.0048379,0.0048379
1427956644616,0.0089272,0.0089272,0.0089272
1427956644687,0.0059187,0.0059187,0.0059187
1427956644743,0.0053268,0.0053268,0.0053268
1427956644813,0.0047941,0.0047941,0.0047941
1427956644873,0.0043147,0.0043147,0.0043147
1427956644943,0.0028832,0.0028832,0.0028832
1427956645029,0.0046475,0.0046475,0.0046475
1427956645071,0.0061354,0.0061354,0.0061354
1427956645142,0.0005220,0.0005220,0.0005220
1427956645202,-0.0005300,-0.0005300,-0.0005300
1427956645274,0.0055227,0.0055227,0.0055227
1427956645342,0.0079705,0.0079705,0.0079705
1427956645403,0.0141734,0.0141734,0.0141734
1427956645473,0.0056323,0.0056323,0.0056323
1427956645533,0.0054805,0.0054805,0.0054805
1427956645601,-0.0020676,-0.0020676,-0.0020676
1427956645672,-0.0028608,-0.0028608,-0.0028608
1427956645733,0.0014253,0.0014253,0.0014253
1427956645803,0.0102827,0.0102827,0.0102827
1427956645863,0.0192545,0.0192545,0.0192545
1427956645933,0.0052524,0.0052524,0.0052524
1427956646020,0.0115961,0.0115961,0.0115961
1427956646075,0.0044365,0.0044365,0.0044365
1427956646132,-0.0030072,-0.0030072,-0.0030072
1427956646193,-0.0087064,-0.0087064,-0.0087064
1427956646263,-0.0128358,-0.0128358,-0.0128358
1427956646332,-0.0035522,-0.0035522,-0.0035522
1427956646390,-0.0020115,-0.0020115,-0.0020115
1427956646461,0.0096227,0.0096227,0.0096227
1427956646523,0.0186604,0.0186604,0.0186604
1427956646598,0.0097944,0.0097944,0.0097944
1427956646660,-0.0021850,-0.0021850,-0.0021850
1427956646722,-0.0059665,-0.0059665,-0.0059665
1427956646793,0.0059852,0.0059852,0.0059852
1427956646853,0.0073671,0.0073671,0.0073671
1427956646924,0.0136304,0.0136304,0.0136304
1427956646994,0.0082674,0.0082674,0.0082674
1427956647076,0.0034406,0.0034406,0.0034406
1427956647121,0.0000966,0.0000966,0.0000966
1427956647193,-0.0029131,-0.0029131,-0.0029131
1427956647253,0.0049815,0.0049815,0.0049815
1427956647323,-0.0012596,-0.0012596,-0.0012596
1427956647383,-0.0001340,-0.0001340,-0.0001340
1427956647453,-0.0001200,-0.0001200,-0.0001200
1427956647510,-0.0001080,-0.0001080,-0.0001080
1427956647586,-0.0010974,-0.0010974,-0.0010974
1427956647650,-0.0009880,-0.0009880,-0.0009880
1427956647711,-0.0006180,-0.0006180,-0.0006180
1427956647786,0.0002000,0.0002000,0.0002000
1427956647867,0.0001800,0.0001800,0.0001800
1427956647913,0.0001620,0.0001620,0.0001620
1427956647988,0.0031458,0.0031458,0.0031458
1427956648082,0.0018312,0.0018312,0.0018312
1427956648110,0.0006480,0.0006480,0.0006480
1427956648172,0.0010278,0.0010278,0.0010278
1427956648244,0.0040249,0.0040249,0.0040249
1427956648313,-0.0003780,-0.0003780,-0.0003780
1427956648373,-0.0033398,-0.0033398,-0.0033398
1427956648444,-0.0010058,-0.0010058,-0.0010058
1427956648503,-0.0019052,-0.0019052,-0.0019052
1427956648597,-0.0005210,-0.0005210,-0.0005210
1427956648640,0.0026568,0.0026568,0.0026568
1427956648701,0.0083911,0.0083911,0.0083911
1427956648772,0.0035520,0.0035520,0.0035520
1427956648833,-0.0008030,-0.0008030,-0.0008030
1427956648949,-0.0057229,-0.0057229,-0.0057229
1427956649011,0.0016147,0.0016147,0.0016147
1427956649030,-0.0036355,-0.0036355,-0.0036355
1427956649101,-0.0082720,-0.0082720,-0.0082720
1427956649170,-0.0074448,-0.0074448,-0.0074448
1427956649230,0.0003000,0.0003000,0.0003000
1427956649302,0.0052697,0.0052697,0.0052697
1427956649361,0.0037427,0.0037427,0.0037427
1427956649433,-0.0016734,-0.0016734,-0.0016734
1427956649492,-0.0139684,-0.0139684,-0.0139684
1427956649563,-0.0035715,-0.0035715,-0.0035715
1427956649630,0.0017856,0.0017856,0.0017856
1427956649695,0.0116071,0.0116071,0.0116071
1427956649761,-0.0015537,-0.0015537,-0.0015537
1427956649822,0.0056017,0.0056017,0.0056017
1427956649894,-0.0000165,-0.0000165,-0.0000165
1427956649982,-0.0082626,-0.0082626,-0.0082626
1427956650025,-0.0114364,-0.0114364,-0.0114364
1427956650090,0.0027073,0.0027073,0.0027073
1427956650151,0.0154366,0.0154366,0.0154366
1427956650223,0.0208929,0.0208929,0.0208929
1427956650296,0.0038676,0.0038676,0.0038676
1427956650353,0.0000232,0.0000232,0.0000232
1427956650423,-0.0079791,-0.0079791,-0.0079791
1427956650486,-0.0101812,-0.0101812,-0.0101812
1427956650553,-0.0171631,-0.0171631,-0.0171631
1427956650626,-0.0104467,-0.0104467,-0.0104467
1427956650680,0.0005980,0.0005980,0.0005980
1427956650751,-0.0075248,-0.0075248,-0.0075248
1427956650812,0.0120843,0.0120843,0.0120843
1427956650887,0.0148759,0.0148759,0.0148759
1427956650953,0.0063883,0.0063883,0.0063883
1427956651051,-0.0012505,-0.0012505,-0.0012505
1427956651081,-0.0081255,-0.0081255,-0.0081255
1427956651142,-0.0143129,-0.0143129,-0.0143129
1427956651214,0.0016099,0.0016099,0.0016099
1427956651283,-0.0008930,-0.0008930,-0.0008930
1427956651344,0.0101959,0.0101959,0.0101959
1427956651413,0.0091763,0.0091763,0.0091763
1427956651473,0.0142587,0.0142587,0.0142587
1427956651544,0.0028328,0.0028328,0.0028328
1427956651618,0.0071140,0.0071140,0.0071140
1427956651671,-0.0137054,-0.0137054,-0.0137054
1427956651742,-0.0053349,-0.0053349,-0.0053349
1427956651811,0.0051986,0.0051986,0.0051986
1427956651873,0.0146787,0.0146787,0.0146787
1427956651944,0.0192109,0.0192109,0.0192109
1427956652040,0.0040096,0.0040096,0.0040096
1427956652070,0.0175608,0.0175608,0.0175608
1427956652142,0.0198047,0.0198047,0.0198047
1427956652202,0.0178242,0.0178242,0.0178242
1427956652273,0.0230418,0.0230418,0.0230418
1427956652336,0.0217376,0.0217376,0.0217376
1427956652403,0.0275639,0.0275639,0.0275639
1427956652463,0.0212555,0.0212555,0.0212555
1427956652533,0.0304267,0.0304267,0.0304267
1427956652614,0.0143841,0.0143841,0.0143841
1427956652663,0.0059457,0.0059457,0.0059457
1427956652732,0.0083511,0.0083511,0.0083511
1427956652808,0.0215160,0.0215160,0.0215160
1427956652862,0.0273644,0.0273644,0.0273644
1427956652930,0.0179980,0.0179980,0.0179980
1427956653003,0.0272652,0.0272652,0.0272652
1427956653063,0.0135386,0.0135386,0.0135386
1427956653121,-0.0018152,-0.0018152,-0.0018152
1427956653196,0.0083663,0.0083663,0.0083663
1427956653263,0.0135297,0.0135297,0.0135297
1427956653323,0.0201767,0.0201767,0.0201767
1427956653394,0.0135102,0.0135102,0.0135102
1427956653454,0.0117431,0.0117431,0.0117431
1427956653523,0.0155688,0.0155688,0.0155688
1427956653586,0.0100119,0.0100119,0.0100119
1427956653654,0.0130107,0.0130107,0.0130107
1427956653724,0.0097097,0.0097097,0.0097097
1427956653788,0.0087387,0.0087387,0.0087387
1427956653853,0.0114638,0.0114638,0.0114638
1427956653952,0.0079783,0.0079783,0.0079783
1427956653984,0.0061805,0.0061805,0.0061805
1427956654050,0.0045625,0.0045625,0.0045625
1427956654120,0.0061062,0.0061062,0.0061062
1427956654180,0.0054956,0.0054956,0.0054956
1427956654250,0.0049460,0.0049460,0.0049460
1427956654310,0.0058782,0.0058782,0.0058782
1427956654380,0.0050063,0.0050063,0.0050063
1427956654446,0.0055057,0.0055057,0.0055057
1427956654513,0.0069551,0.0069551,0.0069551
1427956654583,0.0042596,0.0042596,0.0042596
1427956654642,0.0018336,0.0018336,0.0018336
1427956654712,0.0047120,0.0047120,0.0047120
1427956654784,-0.0004150,-0.0004150,-0.0004150
1427956654844,-0.0023733,-0.0023733,-0.0023733
1427956654913,-0.0021360,-0.0021360,-0.0021360
1427956654981,-0.0019224,-0.0019224,-0.0019224
1427956655063,-0.0057301,-0.0057301,-0.0057301
1427956655110,-0.0071571,-0.0071571,-0.0071571
1427956655171,-0.0032889,-0.0032889,-0.0032889
1427956655244,-0.0066973,-0.0066973,-0.0066973
1427956655303,-0.0060275,-0.0060275,-0.0060275
1427956655373,-0.0054248,-0.0054248,-0.0054248
1427956655433,-0.0048823,-0.0048823,-0.0048823
1427956655503,-0.0043941,-0.0043941,-0.0043941
1427956655573,-0.0054852,-0.0054852,-0.0054852
1427956655648,-0.0062592,-0.0062592,-0.0062592
1427956655707,-0.0066333,-0.0066333,-0.0066333
1427956655763,-0.0059700,-0.0059700,-0.0059700
1427956655833,-0.0053730,-0.0053730,-0.0053730
1427956655903,-0.0058357,-0.0058357,-0.0058357
1427956655962,-0.0052521,-0.0052521,-0.0052521
1427956656059,-0.0058872,-0.0058872,-0.0058872
1427956656119,-0.0042542,-0.0042542,-0.0042542
1427956656160,-0.0038288,-0.0038288,-0.0038288
1427956656230,-0.0024459,-0.0024459,-0.0024459
1427956656291,-0.0022013,-0.0022013,-0.0022013
1427956656360,-0.0019812,-0.0019812,-0.0019812
1427956656421,-0.0027831,-0.0027831,-0.0027831
1427956656496,-0.0029157,-0.0029157,-0.0029157
1427956656562,-0.0002540,-0.0002540,-0.0002540
1427956656624,-0.0002290,-0.0002290,-0.0002290
1427956656692,0.0007940,0.0007940,0.0007940
1427956656753,0.0007150,0.0007150,0.0007150
1427956656823,-0.0033568,-0.0033568,-0.0033568
1427956656893,-0.0040211,-0.0040211,-0.0040211
1427956656954,-0.0010587,-0.0010587,-0.0010587
1427956657056,-0.0031571,-0.0031571,-0.0031571
1427956657090,-0.0018414,-0.0018414,-0.0018414
1427956657151,-0.0016573,-0.0016573,-0.0016573
1427956657223,-0.0004920,-0.0004920,-0.0004920
1427956657283,0.0005580,0.0005580,0.0005580
1427956657354,0.0025018,0.0025018,0.0025018
1427956657413,-0.0006810,-0.0006810,-0.0006810
1427956657483,0.0029265,0.0029265,0.0029265
1427956657554,0.0016338,0.0016338,0.0016338
1427956657621,0.0014705,0.0014705,0.0014705
1427956657682,0.0013234,0.0013234,0.0013234
1427956657745,0.0031911,0.0031911,0.0031911
1427956657813,0.0028720,0.0028720,0.0028720
1427956657875,0.0022362,0.0022362,0.0022362
1427956657944,0.0003260,0.0003260,0.0003260
1427956658051,0.0002940,0.0002940,0.0002940
1427956658080,0.0002640,0.0002640,0.0002640
1427956658141,0.0002380,0.0002380,0.0002380
1427956658212,0.0012141,0.0012141,0.0012141
1427956658272,0.0000927,0.0000927,0.0000927
1427956658344,0.0004050,0.0004050,0.0004050
1427956658403,-0.0009250,-0.0009250,-0.0009250
1427956658473,0.0011676,0.0011676,0.0011676
1427956658544,0.0010508,0.0010508,0.0010508
1427956658607,0.0029457,0.0029457,0.0029457
1427956658671,0.0016512,0.0016512,0.0016512
1427956658733,0.0004860,0.0004860,0.0004860
1427956658807,0.0010627,0.0010627,0.0010627
1427956658873,0.0030937,0.0030937,0.0030937
1427956658933,0.0017843,0.0017843,0.0017843
1427956659064,0.0016059,0.0016059,0.0016059
1427956659072,0.0014453,0.0014453,0.0014453
1427956659130,0.0003010,0.0003010,0.0003010
1427956659200,-0.0027293,-0.0027293,-0.0027293
1427956659260,0.0009170,0.0009170,0.0009170
1427956659330,-0.0051107,-0.0051107,-0.0051107
1427956659400,-0.0015997,-0.0015997,-0.0015997
1427956659461,-0.0004400,-0.0004400,-0.0004400
1427956659536,0.0006040,0.0006040,0.0006040
1427956659606,-0.0014562,-0.0014562,-0.0014562
1427956659661,-0.0016004,-0.0016004,-0.0016004
1427956659724,-0.0021795,-0.0021795,-0.0021795
1427956659793,-0.0019615,-0.0019615,-0.0019615
1427956659864,0.0002350,0.0002350,0.0002350
1427956659923,0.0022112,0.0022112,0.0022112
1427956659995,0.0019900,0.0019900,0.0019900
1427956660064,0.0000590,0.0000590,0.0000590
1427956660120,0.0034119,0.0034119,0.0034119
1427956660191,0.0030707,0.0030707,0.0030707
1427956660250,0.0017637,0.0017637,0.0017637
1427956660320,0.0015873,0.0015873,0.0015873
1427956660393,0.0014286,0.0014286,0.0014286
1427956660451,0.0042857,0.0042857,0.0042857
1427956660523,0.0025913,0.0025913,0.0025913
1427956660582,0.0063714,0.0063714,0.0063714
1427956660651,0.0057343,0.0057343,0.0057343
1427956660714,0.0051609,0.0051609,0.0051609
1427956660783,0.0046448,0.0046448,0.0046448
1427956660853,0.0041803,0.0041803,0.0041803
1427956660911,0.0017623,0.0017623,0.0017623
1427956661003,0.0046423,0.0046423,0.0046423
1427956661051,0.0023274,0.0023274,0.0023274
1427956661113,0.0030947,0.0030947,0.0030947
1427956661181,0.0027852,0.0027852,0.0027852
1427956661248,0.0025067,0.0025067,0.0025067
1427956661311,0.0012560,0.0012560,0.0012560
1427956661371,0.0001300,0.0001300,0.0001300
1427956661443,0.0020168,0.0020168,0.0020168
1427956661514,-0.0006940,-0.0006940,-0.0006940
1427956661573,-0.0006250,-0.0006250,-0.0006250
1427956661656,0.0004380,0.0004380,0.0004380
1427956661704,0.0003940,0.0003940,0.0003940
1427956661773,0.0003540,0.0003540,0.0003540
1427956661844,-0.0000267,-0.0000267,-0.0000267
1427956661903,0.0002870,0.0002870,0.0002870
1427956661992,0.0022584,0.0022584,0.0022584
1427956662062,0.0010325,0.0010325,0.0010325
1427956662101,0.0019293,0.0019293,0.0019293
1427956662173,0.0017364,0.0017364,0.0017364
1427956662236,0.0015627,0.0015627,0.0015627
1427956662302,0.0014677,0.0014677,0.0014677
1427956662371,0.0013658,0.0013658,0.0013658
1427956662430,0.0002290,0.0002290,0.0002290
1427956662503,0.0022063,0.0022063,0.0022063
1427956662563,0.0029857,0.0029857,0.0029857
1427956662633,0.0036871,0.0036871,0.0036871
1427956662691,0.0033184,0.0033184,0.0033184
1427956662763,0.0022988,0.0022988,0.0022988
1427956662833,0.0026879,0.0026879,0.0026879
1427956662894,0.0034191,0.0034191,0.0034191
1427956662966,0.0020772,0.0020772,0.0020772
1427956663053,0.0038695,0.0038695,0.0038695
1427956663090,0.0044825,0.0044825,0.0044825
1427956663163,0.0040343,0.0040343,0.0040343
1427956663223,0.0034284,0.0034284,0.0034284
1427956663293,0.0022678,0.0022678,0.0022678
1427956663352,-0.0009590,-0.0009590,-0.0009590
1427956663422,-0.0028631,-0.0028631,-0.0028631
1427956663491,-0.0025768,-0.0025768,-0.0025768
1427956663553,-0.0013191,-0.0013191,-0.0013191
1427956663633,-0.0010901,-0.0010901,-0.0010901
1427956663681,-0.0000685,-0.0000685,-0.0000685
1427956663752,-0.0020616,-0.0020616,-0.0020616
1427956663823,-0.0018555,-0.0018555,-0.0018555
1427956663883,-0.0036699,-0.0036699,-0.0036699
1427956663953,-0.0013029,-0.0013029,-0.0013029
1427956664060,-0.0017917,-0.0017917,-0.0017917
1427956664080,0.0047446,0.0047446,0.0047446
1427956664150,0.0032702,0.0032702,0.0032702
1427956664215,0.0029431,0.0029431,0.0029431
1427956664286,0.0006490,0.0006490,0.0006490
1427956664343,0.0005840,0.0005840,0.0005840
1427956664416,-0.0014744,-0.0014744,-0.0014744
1427956664482,0.0017860,0.0017860,0.0017860
1427956664540,0.0027057,0.0027057,0.0027057
1427956664612,0.0024351,0.0024351,0.0024351
1427956664673,0.0021916,0.0021916,0.0021916
1427956664741,-0.0010275,-0.0010275,-0.0010275
1427956664813,-0.0009250,-0.0009250,-0.0009250
1427956664872,-0.0008320,-0.0008320,-0.0008320
1427956664945,0.0007580,0.0007580,0.0007580
1427956665036,0.0030258,0.0030258,0.0030258
1427956665070,0.0047232,0.0047232,0.0047232
1427956665141,0.0042509,0.0042509,0.0042509
1427956665202,0.0038258,0.0038258,0.0038258
1427956665273,0.0004430,0.0004430,0.0004430
1427956665333,0.0003990,0.0003990,0.0003990
1427956665402,0.0027780,0.0027780,0.0027780
1427956665471,0.0013231,0.0013231,0.0013231
1427956665532,0.0011908,0.0011908,0.0011908
1427956665619,0.0020717,0.0020717,0.0020717
1427956665671,-0.0011354,-0.0011354,-0.0011354
1427956665736,-0.0010219,-0.0010219,-0.0010219
1427956665803,0.0004860,0.0004860,0.0004860
1427956665863,-0.0026277,-0.0026277,-0.0026277
1427956665936,-0.0023650,-0.0023650,-0.0023650
1427956666003,-0.0021285,-0.0021285,-0.0021285
1427956666072,-0.0019156,-0.0019156,-0.0019156
1427956666130,-0.0017241,-0.0017241,-0.0017241
1427956666190,-0.0045517,-0.0045517,-0.0045517
1427956666260,-0.0025521,-0.0025521,-0.0025521
1427956666330,-0.0025868,-0.0025868,-0.0025868
1427956666391,-0.0023282,-0.0023282,-0.0023282
1427956666463,0.0009050,0.0009050,0.0009050
1427956666520,-0.0001860,-0.0001860,-0.0001860
1427956666596,-0.0001670,-0.0001670,-0.0001670
1427956666651,-0.0021505,-0.0021505,-0.0021505
1427956666721,-0.0010856,-0.0010856,-0.0010856
1427956666794,-0.0006420,-0.0006420,-0.0006420
1427956666853,-0.0005780,-0.0005780,-0.0005780
1427956666923,0.0014801,0.0014801,0.0014801
1427956666997,0.0003320,0.0003320,0.0003320
1427956667093,-0.0007010,-0.0007010,-0.0007010
1427956667120,0.0003690,0.0003690,0.0003690
1427956667181,0.0000434,0.0000434,0.0000434
1427956667252,0.0003990,0.0003990,0.0003990
1427956667313,-0.0016410,-0.0016410,-0.0016410
1427956667386,-0.0014769,-0.0014769,-0.0014769
1427956667453,0.0006710,0.0006710,0.0006710
1427956667513,-0.0003960,-0.0003960,-0.0003960
1427956667581,-0.0013567,-0.0013567,-0.0013567
1427956667643,-0.0006340,-0.0006340,-0.0006340
1427956667715,-0.0019989,-0.0019989,-0.0019989
1427956667780,0.0002010,0.0002010,0.0002010
1427956667843,0.0001810,0.0001810,0.0001810
1427956667913,0.0001630,0.0001630,0.0001630
1427956667988,0.0021465,0.0021465,0.0021465
1427956668080,0.0001380,0.0001380,0.0001380
1427956668110,0.0037387,0.0037387,0.0037387
1427956668170,0.0033648,0.0033648,0.0033648
1427956668240,0.0030283,0.0030283,0.0030283
1427956668300,0.0027255,0.0027255,0.0027255
1427956668370,0.0024529,0.0024529,0.0024529
1427956668446,0.0012077,0.0012077,0.0012077
1427956668501,0.0027530,0.0027530,0.0027530
1427956668571,-0.0000218,-0.0000218,-0.0000218
1427956668643,-0.0000196,-0.0000196,-0.0000196
1427956668701,-0.0000177,-0.0000177,-0.0000177
1427956668786,0.0009840,0.0009840,0.0009840
1427956668832,0.0008860,0.0008860,0.0008860
1427956668901,0.0017971,0.0017971,0.0017971
1427956668991,0.0006010,0.0006010,0.0006010
1427956669075,-0.0003440,-0.0003440,-0.0003440
1427956669137,0.0026901,0.0026901,0.0026901
1427956669160,0.0034211,0.0034211,0.0034211
1427956669230,0.0050790,0.0050790,0.0050790
1427956669300,0.0025711,0.0025711,0.0025711
1427956669360,0.0023140,0.0023140,0.0023140
1427956669430,0.0026218,0.0026218,0.0026218
1427956669495,0.0030743,0.0030743,0.0030743
1427956669562,0.0027669,0.0027669,0.0027669
1427956669631,0.0044902,0.0044902,0.0044902
1427956669691,0.0020412,0.0020412,0.0020412
1427956669763,0.0008370,0.0008370,0.0008370
1427956669823,-0.0012466,-0.0012466,-0.0012466
1427956669916,0.0019938,0.0019938,0.0019938
1427956670032,-0.0028098,-0.0028098,-0.0028098
1427956670035,0.0004710,0.0004710,0.0004710
1427956670091,0.0004240,0.0004240,0.0004240
1427956670156,0.0023817,0.0023817,0.0023817
1427956670223,0.0021435,0.0021435,0.0021435
1427956670286,0.0019292,0.0019292,0.0019292
1427956670353,0.0007570,0.0007570,0.0007570
1427956670423,0.0017626,0.0017626,0.0017626
1427956670483,0.0015864,0.0015864,0.0015864
1427956670553,0.0024277,0.0024277,0.0024277
1427956670613,0.0021849,0.0021849,0.0021849
1427956670681,0.0039665,0.0039665,0.0039665
1427956670753,0.0035698,0.0035698,0.0035698
1427956670813,0.0025830,0.0025830,0.0025830
1427956670886,0.0008920,0.0008920,0.0008920
1427956670944,0.0008020,0.0008020,0.0008020
1427956671030,0.0037221,0.0037221,0.0037221
1427956671080,0.0033499,0.0033499,0.0033499
1427956671141,0.0040149,0.0040149,0.0040149
1427956671213,0.0016134,0.0016134,0.0016134
1427956671272,0.0023991,0.0023991,0.0023991
1427956671345,0.0013069,0.0013069,0.0013069
1427956671413,0.0021762,0.0021762,0.0021762
1427956671472,0.0019586,0.0019586,0.0019586
1427956671544,0.0017627,0.0017627,0.0017627
1427956671602,0.0015865,0.0015865,0.0015865
1427956671670,-0.0005720,-0.0005720,-0.0005720
1427956671742,0.0013698,0.0013698,0.0013698
1427956671803,-0.0005630,-0.0005630,-0.0005630
1427956671873,0.0014929,0.0014929,0.0014929
1427956671933,0.0003440,0.0003440,0.0003440
1427956672016,0.0023092,0.0023092,0.0023092
1427956672092,0.0030783,0.0030783,0.0030783
1427956672130,0.0027705,0.0027705,0.0027705
1427956672200,0.0015718,0.0015718,0.0015718
1427956672261,0.0069441,0.0069441,0.0069441
1427956672332,0.0072497,0.0072497,0.0072497
1427956672400,0.0035247,0.0035247,0.0035247
1427956672460,0.0031722,0.0031722,0.0031722
1427956672530,0.0018550,0.0018550,0.0018550
1427956672594,0.0036695,0.0036695,0.0036695
1427956672661,0.0044025,0.0044025,0.0044025
1427956672731,0.0048723,0.0048723,0.0048723
1427956672794,0.0023851,0.0023851,0.0023851
1427956672863,0.0011466,0.0011466,0.0011466
1427956672923,0.0020319,0.0020319,0.0020319
1427956673019,0.0018287,0.0018287,0.0018287
1427956673090,0.0024529,0.0024529,0.0024529
1427956673122,-0.0014187,-0.0014187,-0.0014187
1427956673203,-0.0032769,-0.0032769,-0.0032769
1427956673253,-0.0019492,-0.0019492,-0.0019492
1427956673323,-0.0017543,-0.0017543,-0.0017543
1427956673395,0.0004210,0.0004210,0.0004210
1427956673453,-0.0006210,-0.0006210,-0.0006210
1427956673523,-0.0014331,-0.0014331,-0.0014331
1427956673586,-0.0034030,-0.0034030,-0.0034030
1427956673650,-0.0040627,-0.0040627,-0.0040627
1427956673722,-0.0006560,-0.0006560,-0.0006560
1427956673782,-0.0015908,-0.0015908,-0.0015908
1427956673853,-0.0004320,-0.0004320,-0.0004320
1427956673913,-0.0023885,-0.0023885,-0.0023885
1427956673986,-0.0020888,-0.0020888,-0.0020888
1427956674081,-0.0000347,-0.0000347,-0.0000347
1427956674110,-0.0000312,-0.0000312,-0.0000312
1427956674181,-0.0000281,-0.0000281,-0.0000281
1427956674244,0.0019747,0.0019747,0.0019747
1427956674313,0.0017772,0.0017772,0.0017772
1427956674383,0.0025995,0.0025995,0.0025995
1427956674444,0.0010429,0.0010429,0.0010429
1427956674513,0.0040056,0.0040056,0.0040056
1427956674574,0.0066050,0.0066050,0.0066050
1427956674656,0.0039445,0.0039445,0.0039445
1427956674717,0.0025501,0.0025501,0.0025501
1427956674772,0.0022951,0.0022951,0.0022951
1427956674843,0.0020656,0.0020656,0.0020656
1427956674902,0.0035777,0.0035777,0.0035777
1427956674992,0.0024731,0.0024731,0.0024731
1427956675082,0.0002260,0.0002260,0.0002260
1427956675100,-0.0017968,-0.0017968,-0.0017968
1427956675171,-0.0016171,-0.0016171,-0.0016171
1427956675242,-0.0014554,-0.0014554,-0.0014554
1427956675301,-0.0013099,-0.0013099,-0.0013099
1427956675373,-0.0005800,-0.0005800,-0.0005800
1427956675436,-0.0010610,-0.0010610,-0.0010610
1427956675503,-0.0009550,-0.0009550,-0.0009550
1427956675563,-0.0018594,-0.0018594,-0.0018594
1427956675650,-0.0006730,-0.0006730,-0.0006730
1427956675704,-0.0016061,-0.0016061,-0.0016061
1427956675763,-0.0014455,-0.0014455,-0.0014455
1427956675832,-0.0012667,-0.0012667,-0.0012667
1427956675901,-0.0011709,-0.0011709,-0.0011709
1427956675982,-0.0000538,-0.0000538,-0.0000538
1427956676075,0.0009520,0.0009520,0.0009520
1427956676092,0.0008560,0.0008560,0.0008560
1427956676161,-0.0002290,-0.0002290,-0.0002290
1427956676223,-0.0002060,-0.0002060,-0.0002060
1427956676298,0.0000247,0.0000247,0.0000247
1427956676360,-0.0001670,-0.0001670,-0.0001670
1427956676421,-0.0001500,-0.0001500,-0.0001500
1427956676494,-0.0001350,-0.0001350,-0.0001350
1427956676553,-0.0001220,-0.0001220,-0.0001220
1427956676625,-0.0001100,-0.0001100,-0.0001100
1427956676695,-0.0000987,-0.0000987,-0.0000987
1427956676753,-0.0001300,-0.0001300,-0.0001300
1427956676823,0.0000201,0.0000201,0.0000201
1427956676894,0.0000181,0.0000181,0.0000181
1427956676952,0.0010163,0.0010163,0.0010163
1427956677050,0.0009150,0.0009150,0.0009150
1427956677081,0.0008230,0.0008230,0.0008230
1427956677151,0.0007410,0.0007410,0.0007410
1427956677213,0.0005890,0.0005890,0.0005890
1427956677286,0.0006000,0.0006000,0.0006000
1427956677353,0.0005400,0.0005400,0.0005400
1427956677412,0.0004860,0.0004860,0.0004860
1427956677481,0.0004370,0.0004370,0.0004370
1427956677624,0.0005160,0.0005160,0.0005160
1427956677681,0.0012544,0.0012544,0.0012544
1427956677745,0.0011289,0.0011289,0.0011289
1427956677813,0.0010160,0.0010160,0.0010160
1427956677873,0.0009140,0.0009140,0.0009140
1427956677944,0.0008230,0.0008230,0.0008230
1427956678010,0.0007410,0.0007410,0.0007410
1427956678070,0.0009800,0.0009800,0.0009800
1427956678143,0.0006000,0.0006000,0.0006000
1427956678204,0.0005400,0.0005400,0.0005400
1427956678273,0.0014860,0.0014860,0.0014860
1427956678344,0.0013374,0.0013374,0.0013374
1427956678403,0.0012036,0.0012036,0.0012036
1427956678481,0.0010334,0.0010334,0.0010334
1427956678546,0.0018749,0.0018749,0.0018749
1427956678602,0.0016874,0.0016874,0.0016874
1427956678673,0.0015187,0.0015187,0.0015187
1427956678732,0.0023668,0.0023668,0.0023668
1427956678803,0.0011301,0.0011301,0.0011301
1427956678863,0.0010171,0.0010171,0.0010171
1427956678936,0.0015992,0.0015992,0.0015992
1427956679002,0.0008240,0.0008240,0.0008240
1427956679060,0.0007410,0.0007410,0.0007410
1427956679131,0.0006670,0.0006670,0.0006670
1427956679201,0.0006010,0.0006010,0.0006010
1427956679261,0.0005410,0.0005410,0.0005410
1427956679337,0.0006750,0.0006750,0.0006750
1427956679393,-0.0005620,-0.0005620,-0.0005620
1427956679463,-0.0005060,-0.0005060,-0.0005060
1427956679523,-0.0004550,-0.0004550,-0.0004550
1427956679603,-0.0004100,-0.0004100,-0.0004100
1427956679660,-0.0003690,-0.0003690,-0.0003690
1427956679720,-0.0023319,-0.0023319,-0.0023319
1427956679795,-0.0007720,-0.0007720,-0.0007720
1427956679853,0.0000111,0.0000111,0.0000111
1427956679923,-0.0009900,-0.0009900,-0.0009900
1427956679995,-0.0018910,-0.0018910,-0.0018910
1427956680108,-0.0027019,-0.0027019,-0.0027019
1427956680120,-0.0024317,-0.0024317,-0.0024317
1427956680194,-0.0021885,-0.0021885,-0.0021885
1427956680250,-0.0016987,-0.0016987,-0.0016987
1427956680320,-0.0008730,-0.0008730,-0.0008730
1427956680380,-0.0007850,-0.0007850,-0.0007850
1427956680449,-0.0017069,-0.0017069,-0.0017069
1427956680520,-0.0005360,-0.0005360,-0.0005360
1427956680581,-0.0004830,-0.0004830,-0.0004830
1427956680660,-0.0008770,-0.0008770,-0.0008770
1427956680710,-0.0003910,-0.0003910,-0.0003910
1427956680784,-0.0023518,-0.0023518,-0.0023518
1427956680845,-0.0041166,-0.0041166,-0.0041166
1427956680913,-0.0037050,-0.0037050,-0.0037050
1427956680982,-0.0033345,-0.0033345,-0.0033345
1427956681064,-0.0027798,-0.0027798,-0.0027798
1427956681111,-0.0009010,-0.0009010,-0.0009010
1427956681174,0.0011892,0.0011892,0.0011892
1427956681241,0.0010703,0.0010703,0.0010703
1427956681313,-0.0000368,-0.0000368,-0.0000368
1427956681372,-0.0020331,-0.0020331,-0.0020331
1427956681444,-0.0028298,-0.0028298,-0.0028298
1427956681503,-0.0005900,-0.0005900,-0.0005900
1427956681573,-0.0002920,-0.0002920,-0.0002920
1427956681648,-0.0012629,-0.0012629,-0.0012629
1427956681702,-0.0001370,-0.0001370,-0.0001370
1427956681771,-0.0011230,-0.0011230,-0.0011230
1427956681831,-0.0020107,-0.0020107,-0.0020107
1427956681903,-0.0028096,-0.0028096,-0.0028096
1427956681987,-0.0012725,-0.0012725,-0.0012725
1427956682064,-0.0022758,-0.0022758,-0.0022758
1427956682100,-0.0020482,-0.0020482,-0.0020482
1427956682172,-0.0018434,-0.0018434,-0.0018434
1427956682238,-0.0016590,-0.0016590,-0.0016590
1427956682302,-0.0014931,-0.0014931,-0.0014931
1427956682361,-0.0013438,-0.0013438,-0.0013438
1427956682432,-0.0017772,-0.0017772,-0.0017772
1427956682498,-0.0030885,-0.0030885,-0.0030885
1427956682564,-0.0027796,-0.0027796,-0.0027796
1427956682647,-0.0025017,-0.0025017,-0.0025017
1427956682694,-0.0012515,-0.0012515,-0.0012515
1427956682764,-0.0001260,-0.0001260,-0.0001260
1427956682838,-0.0019495,-0.0019495,-0.0019495
1427956682891,0.0016976,0.0016976,0.0016976
1427956682988,0.0005280,0.0005280,0.0005280
1427956683063,-0.0005250,-0.0005250,-0.0005250
1427956683091,-0.0014724,-0.0014724,-0.0014724
1427956683151,-0.0013252,-0.0013252,-0.0013252
1427956683223,-0.1451927,-0.1451927,-0.1451927
1427956683295,-0.0243816,-0.0243816,-0.0243816
1427956683351,-0.3557060,-0.3557060,-0.3557060
1427956683423,-0.3681354,-0.3681354,-0.3681354
1427956683483,-0.3743219,-0.3743219,-0.3743219
1427956683553,-0.3768897,-0.3768897,-0.3768897
1427956683622,-0.3552007,-0.3552007,-0.3552007
1427956683688,-0.3226806,-0.3226806,-0.3226806
1427956683752,-0.3588224,-0.3588224,-0.3588224
1427956683813,-0.2339713,-0.2339713,-0.2339713
1427956683906,-0.1945742,-0.1945742,-0.1945742
1427956683953,-0.1691168,-0.1691168,-0.1691168
1427956684049,-0.1292051,-0.1292051,-0.1292051
1427956684081,-0.1282846,-0.1282846,-0.1282846
1427956684150,-0.0674561,-0.0674561,-0.0674561
1427956684210,-0.1537680,-0.1537680,-0.1537680
1427956684279,-0.0460395,-0.0460395,-0.0460395
1427956684340,-0.0484355,-0.0484355,-0.0484355
1427956684410,-0.0305920,-0.0305920,-0.0305920
1427956684480,-0.0115328,-0.0115328,-0.0115328
1427956684552,-0.0153795,-0.0153795,-0.0153795
1427956684612,-0.0303958,-0.0303958,-0.0303958
1427956684671,-0.0119574,-0.0119574,-0.0119574
1427956684748,-0.0087616,-0.0087616,-0.0087616
1427956684802,-0.0138855,-0.0138855,-0.0138855
1427956684873,-0.0174969,-0.0174969,-0.0174969
1427956684943,-0.0207472,-0.0207472,-0.0207472
1427956685040,-0.0145697,-0.0145697,-0.0145697
1427956685070,-0.0133053,-0.0133053,-0.0133053
1427956685140,-0.0059747,-0.0059747,-0.0059747
1427956685200,-0.0073773,-0.0073773,-0.0073773
1427956685270,-0.0056395,-0.0056395,-0.0056395
1427956685330,-0.0020756,-0.0020756,-0.0020756
1427956685401,0.0031320,0.0031320,0.0031320
1427956685462,-0.0052067,-0.0052067,-0.0052067
1427956685533,0.0061369,0.0061369,0.0061369
1427956685603,-0.0034768,-0.0034768,-0.0034768
1427956685666,0.0048709,0.0048709,0.0048709
1427956685737,0.0083838,0.0083838,0.0083838
1427956685794,0.0105454,0.0105454,0.0105454
1427956685863,0.0052920,0.0052920,0.0052920
1427956685936,0.0096418,0.0096418,0.0096418
1427956685997,0.0126776,0.0126776,0.0126776
1427956686061,0.0124099,0.0124099,0.0124099
1427956686121,0.0171689,0.0171689,0.0171689
1427956686193,0.0114520,0.0114520,0.0114520
1427956686262,0.0113068,0.0113068,0.0113068
1427956686320,0.0124428,0.0124428,0.0124428
1427956686392,0.0081585,0.0081585,0.0081585
1427956686452,0.0033426,0.0033426,0.0033426
1427956686523,0.0010084,0.0010084,0.0010084
1427956686594,0.0199075,0.0199075,0.0199075
1427956686665,0.0129168,0.0129168,0.0129168
1427956686721,0.0090668,0.0090668,0.0090668
1427956686783,0.0022626,0.0022626,0.0022626
1427956686853,0.0010363,0.0010363,0.0010363
1427956686922,-0.0080673,-0.0080673,-0.0080673
1427956687024,0.0077394,0.0077394,0.0077394
1427956687051,-0.0030345,-0.0030345,-0.0030345
1427956687111,0.0352689,0.0352689,0.0352689
1427956687196,0.0058676,0.0058676,0.0058676
1427956687251,0.0384678,0.0384678,0.0384678
1427956687313,0.0726211,0.0726211,0.0726211
1427956687388,0.1413589,0.1413589,0.1413589
1427956687453,0.1782230,0.1782230,0.1782230
1427956687510,0.0884007,0.0884007,0.0884007
1427956687587,-0.0754393,-0.0754393,-0.0754393
1427956687644,0.0739387,0.0739387,0.0739387
1427956687714,-0.2799059,-0.2799059,-0.2799059
1427956687775,-0.2219153,-0.2219153,-0.2219153
1427956687844,-0.1837238,-0.1837238,-0.1837238
1427956687942,-0.3083514,-0.3083514,-0.3083514
1427956687992,-0.4575162,-0.4575162,-0.4575162
1427956688070,-0.2902825,-0.2902825,-0.2902825
1427956688100,-0.6113882,-0.6113882,-0.6113882
1427956688172,-0.5302494,-0.5302494,-0.5302494
1427956688242,-0.6002244,-0.6002244,-0.6002244
1427956688301,-0.5972020,-0.5972020,-0.5972020
1427956688373,-0.7974818,-0.7974818,-0.7974818
1427956688433,-0.7777336,-0.7777336,-0.7777336
1427956688503,-0.6523799,-0.6523799,-0.6523799
1427956688573,-0.7787642,-0.7787642,-0.7787642
1427956688631,-0.7878878,-0.7878878,-0.7878878
1427956688714,-0.7530990,-0.7530990,-0.7530990
1427956688762,-0.7227891,-0.7227891,-0.7227891
1427956688833,-0.6705102,-0.6705102,-0.6705102
1427956688903,-0.5934591,-0.5934591,-0.5934591
1427956688988,-0.7177515,-0.7177515,-0.7177515
1427956689073,-0.5156019,-0.5156019,-0.5156019
1427956689100,-0.4940417,-0.4940417,-0.4940417
1427956689161,-0.4626375,-0.4626375,-0.4626375
1427956689330,-0.4433738,-0.4433738,-0.4433738
1427956689331,-0.4320364,-0.4320364,-0.4320364
1427956689362,-0.3788328,-0.3788328,-0.3788328
1427956689440,-0.4544207,-0.4544207,-0.4544207
1427956689495,-0.3426545,-0.3426545,-0.3426545
1427956689562,-0.3053891,-0.3053891,-0.3053891
1427956689623,-0.2598502,-0.2598502,-0.2598502
1427956689703,-0.2268652,-0.2268652,-0.2268652
1427956689753,-0.2041787,-0.2041787,-0.2041787
1427956689824,-0.1827608,-0.1827608,-0.1827608
1427956689894,-0.2536164,-0.2536164,-0.2536164
1427956689953,-0.1379362,-0.1379362,-0.1379362
1427956690056,-0.1021426,-0.1021426,-0.1021426
1427956690090,-0.0799283,-0.0799283,-0.0799283
1427956690152,-0.0739355,-0.0739355,-0.0739355
1427956690241,-0.0675420,-0.0675420,-0.0675420
1427956690287,-0.0607878,-0.0607878,-0.0607878
1427956690352,-0.0870454,-0.0870454,-0.0870454
1427956690411,-0.0569381,-0.0569381,-0.0569381
1427956690486,-0.0502443,-0.0502443,-0.0502443
1427956690552,-0.0482199,-0.0482199,-0.0482199
1427956690612,-0.0433979,-0.0433979,-0.0433979
1427956690680,-0.0160581,-0.0160581,-0.0160581
1427956690750,0.0105477,0.0105477,0.0105477
1427956690811,-0.0340517,-0.0340517,-0.0340517
1427956690885,-0.0026563,-0.0026563,-0.0026563
1427956690943,-0.0023907,-0.0023907,-0.0023907
1427956691010,-0.0001520,-0.0001520,-0.0001520
1427956691071,-0.0161365,-0.0161365,-0.0161365
1427956691143,0.0264772,0.0264772,0.0264772
1427956691216,0.0010284,0.0010284,0.0010284
1427956691273,-0.0007530,-0.0007530,-0.0007530
1427956691345,0.0073219,0.0073219,0.0073219
1427956691415,0.0025897,0.0025897,0.0025897
1427956691472,-0.0036693,-0.0036693,-0.0036693
1427956691542,-0.0033024,-0.0033024,-0.0033024
1427956691603,-0.0019721,-0.0019721,-0.0019721
1427956691672,0.0000357,0.0000357,0.0000357
1427956691732,0.0248026,0.0248026,0.0248026
1427956691804,0.0353223,0.0353223,0.0353223
1427956691873,0.0397901,0.0397901,0.0397901
1427956691933,0.0548111,0.0548111,0.0548111
1427956692019,0.0673300,0.0673300,0.0673300
1427956692071,0.0915970,0.0915970,0.0915970
1427956692133,0.0522755,0.0522755,0.0522755
1427956692204,0.2945935,0.2945935,0.2945935
1427956692262,0.4131342,0.4131342,0.4131342
1427956692337,0.5558208,0.5558208,0.5558208
1427956692394,0.6142387,0.6142387,0.6142387
1427956692463,0.5648148,0.5648148,0.5648148
1427956692550,0.4885204,0.4885204,0.4885204
1427956692590,0.4254000,0.4254000,0.4254000
1427956692661,0.4188600,0.4188600,0.4188600
1427956692732,0.4109740,0.4109740,0.4109740
1427956692800,0.3848766,0.3848766,0.3848766
1427956692863,0.3673889,0.3673889,0.3673889
1427956692923,0.3336501,0.3336501,0.3336501
1427956693019,0.3901916,0.3901916,0.3901916
1427956693065,-0.0168434,-0.0168434,-0.0168434
1427956693122,-0.1791591,-0.1791591,-0.1791591
1427956693204,-0.2712432,-0.2712432,-0.2712432
1427956693253,-0.3471189,-0.3471189,-0.3471189
1427956693323,-0.2874070,-0.2874070,-0.2874070
1427956693394,-0.2056663,-0.2056663,-0.2056663
1427956693453,-0.2179063,-0.2179063,-0.2179063
1427956693523,-0.0870897,-0.0870897,-0.0870897
1427956693586,-0.0233807,-0.0233807,-0.0233807
1427956693681,0.0469574,0.0469574,0.0469574
1427956693722,-0.0007380,-0.0007380,-0.0007380
1427956693780,-0.1216645,-0.1216645,-0.1216645
1427956693850,-0.1384981,-0.1384981,-0.1384981
1427956693910,-0.0540690,-0.0540690,-0.0540690
1427956693980,-0.3434835,-0.3434835,-0.3434835
1427956694053,-0.4191351,-0.4191351,-0.4191351
1427956694113,-0.3172216,-0.3172216,-0.3172216
1427956694181,-0.0614994,-0.0614994,-0.0614994
1427956694241,0.1606505,0.1606505,0.1606505
1427956694313,-0.1961378,-0.1961378,-0.1961378
1427956694373,0.5326269,0.5326269,0.5326269
1427956694445,0.5143642,0.5143642,0.5143642
1427956694510,0.3739278,0.3739278,0.3739278
1427956694570,0.4405350,0.4405350,0.4405350
1427956694640,0.5284815,0.5284815,0.5284815
1427956694720,0.4779871,0.4779871,0.4779871
1427956694775,0.3352701,0.3352701,0.3352701
1427956694841,0.3507431,0.3507431,0.3507431
1427956694903,0.2636688,0.2636688,0.2636688
1427956695007,0.1303019,0.1303019,0.1303019
1427956695042,0.0232717,0.0232717,0.0232717
1427956695101,-0.0630555,-0.0630555,-0.0630555
1427956695178,0.1733667,0.1733667,0.1733667
1427956695230,-0.1658749,-0.1658749,-0.1658749
1427956695300,-0.1892874,-0.1892874,-0.1892874
1427956695373,-0.2113587,-0.2113587,-0.2113587
1427956695436,-0.2332228,-0.2332228,-0.2332228
1427956695504,-0.2369005,-0.2369005,-0.2369005
1427956695563,-0.2632105,-0.2632105,-0.2632105
1427956695637,-0.2166425,-0.2166425,-0.2166425
1427956695696,-0.2940005,-0.2940005,-0.2940005
1427956695773,-0.2956004,-0.2956004,-0.2956004
1427956695831,-0.2820404,-0.2820404,-0.2820404
1427956695893,-0.2868363,-0.2868363,-0.2868363
1427956695962,-0.2641527,-0.2641527,-0.2641527
1427956696031,-0.2717374,-0.2717374,-0.2717374
1427956696090,-0.2823946,-0.2823946,-0.2823946
1427956696163,-0.3015073,-0.3015073,-0.3015073
1427956696221,-0.3623566,-0.3623566,-0.3623566
1427956696290,-0.3891209,-0.3891209,-0.3891209
1427956696360,-0.4112088,-0.4112088,-0.4112088
1427956696419,-0.3710880,-0.3710880,-0.3710880
1427956696490,-0.3349792,-0.3349792,-0.3349792
1427956696550,-0.3617102,-0.3617102,-0.3617102
1427956696620,-0.2747332,-0.2747332,-0.2747332
1427956696691,-0.2672598,-0.2672598,-0.2672598
1427956696751,-0.2665339,-0.2665339,-0.2665339
1427956696830,-0.2798805,-0.2798805,-0.2798805
1427956696880,-0.2828924,-0.2828924,-0.2828924
1427956696950,-0.2726032,-0.2726032,-0.2726032
1427956697020,-0.2739838,-0.2739838,-0.2739838
1427956697080,-0.1768086,-0.1768086,-0.1768086
1427956697150,-0.1441277,-0.1441277,-0.1441277
1427956697212,-0.1327149,-0.1327149,-0.1327149
1427956697281,-0.1314434,-0.1314434,-0.1314434
1427956697351,-0.1182991,-0.1182991,-0.1182991
1427956697411,-0.0934692,-0.0934692,-0.0934692
1427956697472,-0.1328105,-0.1328105,-0.1328105
1427956697543,-0.0654100,-0.0654100,-0.0654100
1427956697610,-0.0748690,-0.0748690,-0.0748690
1427956697682,-0.0683821,-0.0683821,-0.0683821
1427956697741,-0.0565439,-0.0565439,-0.0565439
1427956697814,-0.0488895,-0.0488895,-0.0488895
1427956697876,-0.0628189,-0.0628189,-0.0628189
1427956697935,-0.0219005,-0.0219005,-0.0219005
1427956698010,0.0192895,0.0192895,0.0192895
1427956698070,0.0653606,0.0653606,0.0653606
1427956698140,0.1018245,0.1018245,0.1018245
1427956698201,0.1386421,0.1386421,0.1386421
1427956698271,0.1667779,0.1667779,0.1667779
1427956698342,0.0783323,0.0783323,0.0783323
1427956698401,0.1990901,0.1990901,0.1990901
1427956698473,0.2091810,0.2091810,0.2091810
1427956698536,0.1892629,0.1892629,0.1892629
1427956698601,0.1593366,0.1593366,0.1593366
1427956698664,0.1384030,0.1384030,0.1384030
1427956698737,0.1275627,0.1275627,0.1275627
1427956698804,0.1704727,0.1704727,0.1704727
1427956698862,0.0910258,0.0910258,0.0910258
1427956698950,0.0749232,0.0749232,0.0749232
1427956699000,0.0254309,0.0254309,0.0254309
1427956699060,0.0048878,0.0048878,0.0048878
1427956699130,-0.0316010,-0.0316010,-0.0316010
1427956699190,-0.0504409,-0.0504409,-0.0504409
1427956699260,0.0190376,0.0190376,0.0190376
1427956699320,-0.0985571,-0.0985571,-0.0985571
1427956699390,-0.1197014,-0.1197014,-0.1197014
1427956699471,-0.1267313,-0.1267313,-0.1267313
1427956699523,-0.1210581,-0.1210581,-0.1210581
1427956699591,-0.1439523,-0.1439523,-0.1439523
1427956699655,-0.1585571,-0.1585571,-0.1585571
1427956699723,-0.1280929,-0.1280929,-0.1280929
1427956699793,-0.1396312,-0.1396312,-0.1396312
1427956699854,-0.1376681,-0.1376681,-0.1376681
1427956699923,-0.1379013,-0.1379013,-0.1379013
1427956700011,-0.1531112,-0.1531112,-0.1531112
1427956700097,-0.1468001,-0.1468001,-0.1468001
1427956700136,-0.1430224,-0.1430224,-0.1430224
1427956700180,-0.1440080,-0.1440080,-0.1440080
1427956700250,-0.1436072,-0.1436072,-0.1436072
1427956700320,-0.1812465,-0.1812465,-0.1812465
1427956700380,-0.2051219,-0.2051219,-0.2051219
1427956700451,-0.2346097,-0.2346097,-0.2346097
1427956700513,-0.2691487,-0.2691487,-0.2691487
1427956700581,-0.1962903,-0.1962903,-0.1962903
1427956700653,-0.3617105,-0.3617105,-0.3617105
1427956700713,-0.4375394,-0.4375394,-0.4375394
1427956700786,-0.4597855,-0.4597855,-0.4597855
1427956700843,-0.4748069,-0.4748069,-0.4748069
1427956700913,-0.4593262,-0.4593262,-0.4593262
1427956700986,-0.4386337,-0.4386337,-0.4386337
1427956701069,-0.4039542,-0.4039542,-0.4039542
1427956701110,-0.3885588,-0.3885588,-0.3885588
1427956701170,-0.3777029,-0.3777029,-0.3777029
1427956701240,-0.3529326,-0.3529326,-0.3529326
1427956701310,-0.3436394,-0.3436394,-0.3436394
1427956701370,-0.3252754,-0.3252754,-0.3252754
1427956701441,-0.3653439,-0.3653439,-0.3653439
1427956701505,-0.3809731,-0.3809731,-0.3809731
1427956701571,-0.3928758,-0.3928758,-0.3928758
1427956701632,-0.3885882,-0.3885882,-0.3885882
1427956701704,-0.3277294,-0.3277294,-0.3277294
1427956701773,-0.2819564,-0.2819564,-0.2819564
1427956701833,-0.2187608,-0.2187608,-0.2187608
1427956701905,-0.3318139,-0.3318139,-0.3318139
1427956701963,-0.0900962,-0.0900962,-0.0900962
1427956702093,-0.0520866,-0.0520866,-0.0520866
1427956702101,-0.0818780,-0.0818780,-0.0818780
1427956702160,-0.1036902,-0.1036902,-0.1036902
1427956702231,-0.0543211,-0.0543211,-0.0543211
1427956702302,-0.0188890,-0.0188890,-0.0188890
1427956702362,-0.0668269,-0.0668269,-0.0668269
1427956702436,0.1275999,0.1275999,0.1275999
1427956702496,0.1128399,0.1128399,0.1128399
1427956702571,0.0895559,0.0895559,0.0895559
1427956702631,0.0686003,0.0686003,0.0686003
1427956702693,0.1097403,0.1097403,0.1097403
1427956702762,0.1987663,0.1987663,0.1987663
1427956702823,0.1178504,0.1178504,0.1178504
1427956702893,0.3243007,0.3243007,0.3243007
1427956702954,0.3428706,0.3428706,0.3428706
1427956703078,0.3015835,0.3015835,0.3015835
1427956703090,0.2694252,0.2694252,0.2694252
1427956703151,0.2544827,0.2544827,0.2544827
1427956703224,0.2985325,0.2985325,0.2985325
1427956703293,0.2443310,0.2443310,0.2443310
1427956703350,0.2338979,0.2338979,0.2338979
1427956703423,0.2305081,0.2305081,0.2305081
1427956703487,0.2524573,0.2524573,0.2524573
1427956703562,0.2212115,0.2212115,0.2212115
1427956703613,0.1880904,0.1880904,0.1880904
1427956703686,0.2284160,0.2284160,0.2284160
1427956703753,0.0689532,0.0689532,0.0689532
1427956703813,-0.0749421,-0.0749421,-0.0749421
1427956703883,-0.2324479,-0.2324479,-0.2324479
1427956703942,-0.1772031,-0.1772031,-0.1772031
1427956704010,-0.1654828,-0.1654828,-0.1654828
1427956704080,-0.1559345,-0.1559345,-0.1559345
1427956704141,-0.1228429,-0.1228429,-0.1228429
1427956704212,-0.1476070,-0.1476070,-0.1476070
1427956704281,-0.1608463,-0.1608463,-0.1608463
1427956704341,-0.1487616,-0.1487616,-0.1487616
1427956704413,-0.2088855,-0.2088855,-0.2088855
1427956704473,-0.2829969,-0.2829969,-0.2829969
1427956704543,-0.1898194,-0.1898194,-0.1898194
1427956704611,-0.4219275,-0.4219275,-0.4219275
1427956704674,-0.5087348,-0.5087348,-0.5087348
1427956704743,-0.5368613,-0.5368613,-0.5368613
1427956704804,-0.5541751,-0.5541751,-0.5541751
1427956704873,-0.5557576,-0.5557576,-0.5557576
1427956704936,-0.5061819,-0.5061819,-0.5061819
1427956705013,-0.5139397,-0.5139397,-0.5139397
1427956705085,-0.3298073,-0.3298073,-0.3298073
1427956705130,-0.2688266,-0.2688266,-0.2688266
1427956705205,-0.1869440,-0.1869440,-0.1869440
1427956705266,-0.1322496,-0.1322496,-0.1322496
1427956705331,-0.0800246,-0.0800246,-0.0800246
1427956705401,-0.0470221,-0.0470221,-0.0470221
1427956705463,-0.1741457,-0.1741457,-0.1741457
1427956705536,-0.0960879,-0.0960879,-0.0960879
1427956705604,-0.1804791,-0.1804791,-0.1804791
1427956705665,-0.2304312,-0.2304312,-0.2304312
1427956705733,-0.2703881,-0.2703881,-0.2703881
1427956705793,-0.2773493,-0.2773493,-0.2773493
1427956705863,-0.3276144,-0.3276144,-0.3276144
1427956705923,-0.2303917,-0.2303917,-0.2303917
1427956705995,-0.4276677,-0.4276677,-0.4276677
1427956706079,-0.4459009,-0.4459009,-0.4459009
1427956706120,-0.4253108,-0.4253108,-0.4253108
1427956706192,-0.3957797,-0.3957797,-0.3957797
1427956706254,-0.3812017,-0.3812017,-0.3812017
1427956706323,-0.2870816,-0.2870816,-0.2870816
1427956706402,-0.3938237,-0.3938237,-0.3938237
1427956706456,-0.2290361,-0.2290361,-0.2290361
1427956706520,-0.2231325,-0.2231325,-0.2231325
1427956706587,-0.2378192,-0.2378192,-0.2378192
1427956706658,-0.2610373,-0.2610373,-0.2610373
1427956706723,-0.3089336,-0.3089336,-0.3089336
1427956706783,-0.3810402,-0.3810402,-0.3810402
1427956706854,-0.2734998,-0.2734998,-0.2734998
1427956706913,-0.3962426,-0.3962426,-0.3962426
1427956706983,-0.4336183,-0.4336183,-0.4336183
1427956707080,-0.4292565,-0.4292565,-0.4292565
1427956707111,-0.4763308,-0.4763308,-0.4763308
1427956707181,-0.5266978,-0.5266978,-0.5266978
1427956707243,-0.5630280,-0.5630280,-0.5630280
1427956707313,-0.4708623,-0.4708623,-0.4708623
1427956707382,-0.4895527,-0.4895527,-0.4895527
1427956707442,-0.3935974,-0.3935974,-0.3935974
1427956707510,-0.3702377,-0.3702377,-0.3702377
1427956707571,-0.2582139,-0.2582139,-0.2582139
1427956707655,-0.1543925,-0.1543925,-0.1543925
1427956707718,-0.3331988,-0.3331988,-0.3331988
1427956707773,-0.0130579,-0.0130579,-0.0130579
1427956707843,0.0252479,0.0252479,0.0252479
1427956707904,0.0367231,0.0367231,0.0367231
1427956707997,-0.0049492,-0.0049492,-0.0049492
1427956708059,-0.0684543,-0.0684543,-0.0684543
1427956708101,-0.1576089,-0.1576089,-0.1576089
1427956708171,-0.0303499,-0.0303499,-0.0303499
1427956708236,-0.4057632,-0.4057632,-0.4057632
1427956708305,-0.5181869,-0.5181869,-0.5181869
1427956708372,-0.6453682,-0.6453682,-0.6453682
1427956708432,-0.7648313,-0.7648313,-0.7648313
1427956708502,-1.0083481,-1.0083481,-1.0083481
1427956708562,-1.2965133,-1.2965133,-1.2965133
1427956708630,-0.7731686,-0.7731686,-0.7731686
1427956708702,-1.3986757,-1.3986757,-1.3986757
1427956708767,-1.3238081,-1.3238081,-1.3238081
1427956708833,-1.2654272,-1.2654272,-1.2654272
1427956708893,-1.1718845,-1.1718845,-1.1718845
1427956708997,-1.0906961,-1.0906961,-1.0906961
1427956709075,-1.2500982,-1.2500982,-1.2500982
1427956709090,-0.9457638,-0.9457638,-0.9457638
1427956709161,-0.7511874,-0.7511874,-0.7511874
1427956709223,-0.5100687,-0.5100687,-0.5100687
1427956709294,-0.2930619,-0.2930619,-0.2930619
1427956709382,-0.0527557,-0.0527557,-0.0527557
1427956709450,0.2935199,0.2935199,0.2935199
1427956709505,-0.3765529,-0.3765529,-0.3765529
1427956709560,0.8083511,0.8083511,0.8083511
1427956709620,0.9205160,0.9205160,0.9205160
1427956709690,0.8534644,0.8534644,0.8534644
1427956709752,0.5401180,0.5401180,0.5401180
1427956709821,0.1821062,0.1821062,0.1821062
1427956709882,-0.1611044,-0.1611044,-0.1611044
1427956709954,0.5239086,0.5239086,0.5239086
1427956710053,-0.8024946,-0.8024946,-0.8024946
1427956710081,-0.8982451,-0.8982451,-0.8982451
1427956710151,-0.8614206,-0.8614206,-0.8614206
1427956710213,-0.7522785,-0.7522785,-0.7522785
1427956710283,-0.6250507,-0.6250507,-0.6250507
1427956710354,-0.4365456,-0.4365456,-0.4365456
1427956710413,-0.7293391,-0.7293391,-0.7293391
1427956710486,0.2251981,0.2251981,0.2251981
1427956710542,0.5116782,0.5116782,0.5116782
1427956710613,0.7665104,0.7665104,0.7665104
1427956710681,0.9548593,0.9548593,0.9548593
1427956710741,1.0193734,1.0193734,1.0193734
1427956710813,0.9414361,0.9414361,0.9414361
1427956710873,0.7365093,0.7365093,0.7365093
1427956710943,0.3611632,0.3611632,0.3611632
1427956711026,0.0750469,0.0750469,0.0750469
1427956711070,-0.1704578,-0.1704578,-0.1704578
1427956711142,-0.4304120,-0.4304120,-0.4304120
1427956711203,-0.6443708,-0.6443708,-0.6443708
1427956711273,-0.8369337,-0.8369337,-0.8369337
1427956711343,-0.2743274,-0.2743274,-0.2743274
1427956711404,-0.8917163,-0.8917163,-0.8917163
1427956711474,-0.7245446,-0.7245446,-0.7245446
1427956711533,-0.5240902,-0.5240902,-0.5240902
1427956711603,-0.2286812,-0.2286812,-0.2286812
1427956711672,0.0561869,0.0561869,0.0561869
1427956711730,0.3345682,0.3345682,0.3345682
1427956711800,-0.3297129,-0.3297129,-0.3297129
1427956711862,0.7991003,0.7991003,0.7991003
1427956711932,0.8611903,0.8611903,0.8611903
1427956712003,0.7520713,0.7520713,0.7520713
1427956712060,0.4628642,0.4628642,0.4628642
1427956712138,0.2235778,0.2235778,0.2235778
1427956712191,-0.0187800,-0.0187800,-0.0187800
1427956712262,0.5133373,0.5133373,0.5133373
1427956712333,-0.5507118,-0.5507118,-0.5507118
1427956712393,-0.7346406,-0.7346406,-0.7346406
1427956712463,-0.7031766,-0.7031766,-0.7031766
1427956712523,-0.5428589,-0.5428589,-0.5428589
1427956712593,-0.2965730,-0.2965730,-0.2965730
1427956712664,-0.5655922,-0.5655922,-0.5655922
1427956712724,0.3485759,0.3485759,0.3485759
1427956712790,0.6547183,0.6547183,0.6547183
1427956712852,0.9322465,0.9322465,0.9322465
1427956712923,1.1250218,1.1250218,1.1250218
1427956712994,1.1165197,1.1165197,1.1165197
1427956713084,0.8354164,0.8354164,0.8354164
1427956713121,0.4592810,0.4592810,0.4592810
1427956713190,0.2193529,0.2193529,0.2193529
1427956713250,0.1554176,0.1554176,0.1554176
1427956713321,0.0368758,0.0368758,0.0368758
1427956713388,-0.2008117,-0.2008117,-0.2008117
1427956713451,-0.3807306,-0.3807306,-0.3807306
1427956713513,0.0482308,0.0482308,0.0482308
1427956713586,-0.6426917,-0.6426917,-0.6426917
1427956713644,-0.5574226,-0.5574226,-0.5574226
1427956713712,-0.2706803,-0.2706803,-0.2706803
1427956713780,0.0403877,0.0403877,0.0403877
1427956713851,0.3163489,0.3163489,0.3163489
1427956713911,0.5937140,0.5937140,0.5937140
1427956713995,-0.0867240,-0.0867240,-0.0867240
1427956714086,0.9984083,0.9984083,0.9984083
1427956714111,0.9805675,0.9805675,0.9805675
1427956714172,0.7265107,0.7265107,0.7265107
1427956714243,0.4388596,0.4388596,0.4388596
1427956714313,0.2459737,0.2459737,0.2459737
1427956714380,0.0073763,0.0073763,0.0073763
1427956714440,0.5662827,0.5662827,0.5662827
1427956714501,-0.2455252,-0.2455252,-0.2455252
1427956714573,-0.3539726,-0.3539726,-0.3539726
1427956714643,-0.2955754,-0.2955754,-0.2955754
1427956714702,-0.1640178,-0.1640178,-0.1640178
1427956714773,-0.0136161,-0.0136161,-0.0136161
1427956714831,0.1307455,0.1307455,0.1307455
1427956714901,-0.1569936,-0.1569936,-0.1569936
1427956714976,0.4507039,0.4507039,0.4507039
1427956715056,0.5636335,0.5636335,0.5636335
1427956715100,0.6702701,0.6702701,0.6702701
1427956715161,0.7302432,0.7302432,0.7302432
1427956715233,0.7292188,0.7292188,0.7292188
1427956715303,0.6288139,0.6288139,0.6288139
1427956715363,0.5858673,0.5858673,0.5858673
1427956715433,0.5852805,0.5852805,0.5852805
1427956715493,0.5887525,0.5887525,0.5887525
1427956715563,0.5808772,0.5808772,0.5808772
1427956715643,0.5597895,0.5597895,0.5597895
1427956715691,0.5278106,0.5278106,0.5278106
1427956715761,0.5713963,0.5713963,0.5713963
1427956715833,0.4320266,0.4320266,0.4320266
1427956715891,0.3218239,0.3218239,0.3218239
1427956715965,0.1996415,0.1996415,0.1996415
1427956716021,0.1166774,0.1166774,0.1166774
1427956716090,0.0160097,0.0160097,0.0160097
1427956716160,-0.0665913,-0.0665913,-0.0665913
1427956716220,0.1699313,0.1699313,0.1699313
1427956716290,-0.0955390,-0.0955390,-0.0955390
1427956716358,-0.0649851,-0.0649851,-0.0649851
1427956716423,-0.0504866,-0.0504866,-0.0504866
1427956716483,-0.0414379,-0.0414379,-0.0414379
1427956716554,0.0097059,0.0097059,0.0097059
1427956716621,-0.0485485,-0.0485485,-0.0485485
1427956716681,0.0409618,0.0409618,0.0409618
1427956716754,0.0528656,0.0528656,0.0528656
1427956716813,0.0275790,0.0275790,0.0275790
1427956716883,0.0298211,0.0298211,0.0298211
1427956716950,-0.2151610,-0.2151610,-0.2151610
1427956717010,-0.6586449,-0.6586449,-0.6586449
1427956717081,-0.1204297,-0.1204297,-0.1204297
1427956717162,-0.5327023,-0.5327023,-0.5327023
1427956717214,-0.5794321,-0.5794321,-0.5794321
1427956717287,-0.8074889,-0.8074889,-0.8074889
1427956717365,-1.0317400,-1.0317400,-1.0317400
1427956717413,-1.2465659,-1.2465659,-1.2465659
1427956717473,-1.3129094,-1.3129094,-1.3129094
1427956717543,-0.9184731,-0.9184731,-0.9184731
1427956717624,-0.8856566,-0.8856566,-0.8856566
1427956717672,-0.7320910,-0.7320910,-0.7320910
1427956717743,-0.6648818,-0.6648818,-0.6648818
1427956717803,-0.4733937,-0.4733937,-0.4733937
1427956717873,-0.2940543,-0.2940543,-0.2940543
1427956717942,-0.2756489,-0.2756489,-0.2756489
1427956718001,-0.5542877,-0.5542877,-0.5542877
1427956718070,-0.1264756,-0.1264756,-0.1264756
1427956718140,0.1121720,0.1121720,0.1121720
1427956718200,0.2599548,0.2599548,0.2599548
1427956718271,0.3389593,0.3389593,0.3389593
1427956718331,0.3600634,0.3600634,0.3600634
1427956718406,0.1889348,0.1889348,0.1889348
1427956718465,0.2973513,0.2973513,0.2973513
1427956718536,0.2736162,0.2736162,0.2736162
1427956718603,0.2942546,0.2942546,0.2942546
1427956718661,0.3398291,0.3398291,0.3398291
1427956718732,0.3528462,0.3528462,0.3528462
1427956718796,0.3665616,0.3665616,0.3665616
1427956718863,0.3207432,0.3207432,0.3207432
1427956718932,0.3320149,0.3320149,0.3320149
1427956718992,0.2838134,0.2838134,0.2838134
1427956719073,0.3294320,0.3294320,0.3294320
1427956719130,0.3534888,0.3534888,0.3534888
1427956719190,0.3251399,0.3251399,0.3251399
1427956719260,0.2606260,0.2606260,0.2606260
1427956719320,0.3140858,0.3140858,0.3140858
1427956719391,-0.0336930,-0.0336930,-0.0336930
1427956719456,-0.1763237,-0.1763237,-0.1763237
1427956719544,-0.2996913,-0.2996913,-0.2996913
1427956719590,-0.3957222,-0.3957222,-0.3957222
1427956719652,-0.4741499,-0.4741499,-0.4741499
1427956719723,-0.2759160,-0.2759160,-0.2759160
1427956719783,-0.4034615,-0.4034615,-0.4034615
1427956719854,-0.3581153,-0.3581153,-0.3581153
1427956719923,-0.3003038,-0.3003038,-0.3003038
